LabVIEW Measurement	
Writer_Version	2
Reader_Version	2
Separator	Tab
Decimal_Separator	.
Multi_Headings	No
X_Columns	No
Time_Pref	Absolute
Operator	mechlab
Description	Data file
Date	2024/02/09
Time	15:27:44.7940001487731933594
***End_of_Header***	
	
Channels	6						
Samples	1	1	1	1	1	1	
Date	2024/02/09	2024/02/09	2024/02/09	2024/02/09	2024/02/09	2024/02/09	
Time	15:27:44.7940001487731933594	15:27:44.9010000228881835938	15:27:45.0100002288818359375	15:27:45.118000030517578125	15:27:45.2249999046325683594	15:27:45.3309998512268066406	
X_Dimension	Time	Time	Time	Time	Time	Time	
X0	0.0000000000000000E+0	0.0000000000000000E+0	0.0000000000000000E+0	0.0000000000000000E+0	0.0000000000000000E+0	0.0000000000000000E+0	
Delta_X	1.000000	1.000000	1.000000	1.000000	1.000000	1.000000	
***End_of_Header***							
X_Value	Untitled	Untitled 1	Untitled 2	Untitled 3	Untitled 4	Untitled 5	Comment
	0.000000	163.957543	-37.451288	19.942621	0.000209	-5.059145E-5
	0.543000	167.697896	-37.447859	19.940806	0.000209	-5.011972E-5
	1.086000	172.797206	-37.447559	19.943954	0.000208	-4.966383E-5
	1.628000	172.935678	-37.444976	19.942198	0.000208	-4.916284E-5
	2.172000	171.227320	-37.439988	19.942940	0.000209	-4.859603E-5
	2.728000	171.958323	-37.446194	19.940842	0.000209	-4.763184E-5
	3.268000	176.638997	-37.443862	19.946186	0.000208	-4.685903E-5
	3.811000	186.873040	-37.438584	19.942777	0.000208	-4.539750E-5
	4.353000	182.759135	-37.445669	19.941138	0.000207	-4.354712E-5
	4.891000	185.887635	-37.441682	19.941204	0.000206	-4.045583E-5
	5.433000	203.781108	-37.434192	19.943687	0.000204	-3.272263E-5
	5.987000	666.175973	-37.395561	19.941563	0.000131	0.000185
	6.529000	953.651782	-37.383391	19.942447	0.000123	0.000208
	7.070000	1029.325092	-37.376322	19.942566	0.000116	0.000229
	7.607000	1099.118176	-37.366536	19.943819	0.000110	0.000248
	8.151000	1152.471740	-37.379820	19.945982	0.000104	0.000262
	8.696000	1199.610169	-37.365547	19.950835	9.937835E-5	0.000275
	9.239000	1240.382108	-37.370954	19.951599	9.616496E-5	0.000286
	9.779000	1273.948676	-37.364919	19.949746	9.230047E-5	0.000294
	10.324000	1308.442683	-37.354901	19.951954	8.928222E-5	0.000305
	10.863000	1348.283963	-37.362597	19.954015	8.522891E-5	0.000314
	11.410000	1381.071223	-37.348699	19.952416	8.247661E-5	0.000325
	11.962000	1410.269484	-37.346947	19.960082	7.895517E-5	0.000334
	12.501000	1445.950164	-37.334442	19.958199	7.597800E-5	0.000342
	13.047000	1473.391764	-37.326958	19.954907	7.262312E-5	0.000352
	13.596000	1503.963473	-37.338967	19.954691	7.025607E-5	0.000358
	14.137000	1533.852484	-37.321748	19.956913	6.820340E-5	0.000366
	14.680000	1563.598193	-37.328320	19.957760	6.602773E-5	0.000373
	15.225000	1579.696363	-37.310212	19.955536	6.429565E-5	0.000380
	15.764000	1616.476769	-37.308911	19.960030	6.113716E-5	0.000387
	16.309000	1635.209127	-37.310055	19.960204	5.848315E-5	0.000393
	16.847000	1654.548507	-37.301321	19.958272	5.680452E-5	0.000399
	17.389000	1683.022206	-37.297241	19.962241	5.469475E-5	0.000406
	17.932000	1703.369533	-37.300770	19.964452	5.218615E-5	0.000412
	18.474000	1727.086882	-37.290037	19.960956	5.019320E-5	0.000418
	19.018000	1745.835341	-37.285387	19.964217	4.839035E-5	0.000425
	19.559000	1772.513736	-37.277697	19.964357	4.606567E-5	0.000430
	20.100000	1790.819407	-37.266912	19.960421	4.466540E-5	0.000437
	20.643000	1816.348162	-37.276170	19.957597	4.294582E-5	0.000443
	21.199000	1837.763012	-37.275056	19.963783	4.119021E-5	0.000449
	21.740000	1847.665368	-37.266561	19.961782	3.875995E-5	0.000455
	22.285000	1878.538175	-37.257444	19.958109	3.694224E-5	0.000461
	22.835000	1894.724903	-37.257361	19.964355	3.503011E-5	0.000467
	23.378000	1913.671410	-37.251696	19.960950	3.320122E-5	0.000474
	23.919000	1936.231069	-37.234322	19.959103	3.148044E-5	0.000479
	24.463000	1952.253564	-37.229798	19.961800	3.044176E-5	0.000485
	25.004000	1974.462213	-37.236026	19.958538	2.847871E-5	0.000491
	25.546000	1995.593679	-37.226574	19.965935	2.669583E-5	0.000498
	26.099000	2012.611239	-37.229418	19.962090	2.573295E-5	0.000504
	26.639000	2040.130127	-37.230117	19.964368	2.333880E-5	0.000510
	27.185000	2060.208562	-37.216788	19.959356	2.223180E-5	0.000516
	27.729000	2077.311460	-37.206831	19.961508	1.982276E-5	0.000523
	28.272000	2097.310999	-37.198400	19.962658	1.859899E-5	0.000529
	28.816000	2117.669599	-37.196007	19.961809	1.628315E-5	0.000535
	29.361000	2136.467973	-37.199588	19.959953	1.391141E-5	0.000541
	29.904000	2157.940789	-37.200354	19.960605	1.193228E-5	0.000547
	30.448000	2181.030185	-37.194226	19.962157	9.857490E-6	0.000552
	30.990000	2200.844558	-37.185950	19.961558	7.898253E-6	0.000558
	31.533000	2217.744579	-37.174814	19.964143	5.980021E-6	0.000563
	32.078000	2237.699034	-37.170083	19.963112	3.976075E-6	0.000570
	32.617000	2257.006213	-37.190726	19.961458	1.916231E-6	0.000576
	33.162000	2276.287630	-37.169939	19.962244	4.399090E-8	0.000582
	33.704000	2294.148904	-37.159234	19.961115	-2.228280E-6	0.000587
	34.251000	2319.458683	-37.157321	19.964542	-5.136622E-6	0.000595
	34.792000	2342.622146	-37.148208	19.962508	-7.816356E-6	0.000600
	35.337000	2351.659857	-37.146182	19.961394	-8.618906E-6	0.000606
	35.885000	2377.956651	-37.143587	19.963383	-1.074703E-5	0.000613
	36.431000	2400.815798	-37.148404	19.963015	-1.270867E-5	0.000618
	36.974000	2418.034627	-37.140376	19.964149	-1.452122E-5	0.000625
	37.515000	2432.950957	-37.134876	19.968389	-1.704437E-5	0.000632
	38.057000	2461.983378	-37.116494	19.967530	-1.980479E-5	0.000638
	38.599000	2475.730747	-37.122655	19.966097	-2.127692E-5	0.000645
	39.140000	2500.105035	-37.111786	19.966675	-2.354536E-5	0.000651
	39.683000	2526.140987	-37.105139	19.963052	-2.568957E-5	0.000657
	40.228000	2547.158135	-37.108939	19.966241	-2.795302E-5	0.000664
	40.772000	2572.430882	-37.102792	19.964305	-3.094196E-5	0.000671
	41.317000	2590.264785	-37.097526	19.965911	-3.324514E-5	0.000676
	41.857000	2606.609309	-37.093324	19.968234	-3.481413E-5	0.000683
	42.400000	2639.250053	-37.101571	19.965096	-3.756575E-5	0.000690
	42.939000	2657.575048	-37.075322	19.968015	-4.025897E-5	0.000697
	43.481000	2671.555888	-37.085933	19.962941	-4.228136E-5	0.000703
	44.024000	2697.694890	-37.078671	19.964877	-4.477331E-5	0.000711
	44.567000	2721.573257	-37.075052	19.964238	-4.764910E-5	0.000718
	45.110000	2744.625622	-37.057598	19.964849	-4.954599E-5	0.000725
	45.664000	2770.440986	-37.081827	19.966917	-5.152114E-5	0.000733
	46.207000	2791.815586	-37.067413	19.964566	-5.426645E-5	0.000740
	46.747000	2815.371925	-37.048684	19.964751	-5.660803E-5	0.000745
	47.288000	2840.913566	-37.058757	19.967155	-5.901047E-5	0.000753
	47.831000	2857.087417	-37.059208	19.965344	-6.078310E-5	0.000760
	48.376000	2888.230733	-37.048539	19.963558	-6.385133E-5	0.000767
	48.915000	2908.875940	-37.043599	19.965220	-6.619659E-5	0.000775
	49.456000	2930.901037	-37.028273	19.967501	-6.945112E-5	0.000782
	49.998000	2953.091979	-37.020851	19.960634	-7.129327E-5	0.000790
	50.540000	2980.931290	-37.034176	19.964439	-7.354160E-5	0.000798
	51.084000	3001.409043	-37.004520	19.970446	-7.634766E-5	0.000806
	51.636000	3027.124580	-37.030479	19.970611	-7.963069E-5	0.000813
	52.179000	3052.640460	-37.002971	19.968815	-8.192619E-5	0.000822
	52.723000	3082.630918	-36.994898	19.966105	-8.489491E-5	0.000828
	53.271000	3096.833958	-36.994399	19.964833	-8.716058E-5	0.000836
	53.815000	3127.178647	-37.003165	19.969867	-8.914178E-5	0.000843
	54.363000	3150.169829	-36.991233	19.965485	-9.174279E-5	0.000851
	54.909000	3174.909623	-36.992492	19.970374	-9.484685E-5	0.000859
	55.451000	3205.352530	-36.987952	19.967356	-9.718699E-5	0.000867
	55.995000	3231.382046	-36.980677	19.971749	-9.984883E-5	0.000875
	56.538000	3256.640305	-36.972749	19.967843	-0.000103	0.000883
	57.084000	3279.257935	-36.972749	19.969438	-0.000105	0.000889
	57.625000	3302.997833	-36.964511	19.971541	-0.000108	0.000897
	58.166000	3324.259726	-36.967715	19.966725	-0.000110	0.000903
	58.706000	3353.127919	-36.968507	19.968962	-0.000112	0.000912
	59.252000	3369.362956	-36.963748	19.973549	-0.000115	0.000921
	59.792000	3400.437040	-36.941090	19.967477	-0.000117	0.000927
	60.334000	3424.001433	-36.950886	19.971536	-0.000120	0.000935
	60.877000	3443.437429	-36.933760	19.973717	-0.000122	0.000944
	61.421000	3466.188702	-36.937554	19.969543	-0.000124	0.000950
	61.964000	3495.961794	-36.930530	19.971646	-0.000127	0.000958
	62.505000	3522.934853	-36.921507	19.969292	-0.000129	0.000966
	63.052000	3544.496233	-36.913624	19.974683	-0.000132	0.000973
	63.590000	3567.815886	-36.908593	19.974890	-0.000134	0.000982
	64.136000	3590.517246	-36.909286	19.971535	-0.000137	0.000988
	64.674000	3616.817267	-36.903592	19.974406	-0.000139	0.000996
	65.219000	3639.420409	-36.900588	19.977360	-0.000142	0.001004
	65.760000	3665.823479	-36.896015	19.974319	-0.000146	0.001013
	66.304000	3690.622852	-36.886341	19.973156	-0.000148	0.001020
	66.847000	3720.494164	-36.888199	19.971649	-0.000150	0.001028
	67.388000	3733.977474	-36.887529	19.974802	-0.000154	0.001034
	67.931000	3764.455810	-36.883201	19.977294	-0.000156	0.001043
	68.474000	3785.183139	-36.875978	19.972003	-0.000158	0.001051
	69.019000	3808.629995	-36.870587	19.974296	-0.000161	0.001057
	69.561000	3830.827382	-36.871083	19.974564	-0.000164	0.001065
	70.104000	3861.684101	-36.860913	19.976341	-0.000167	0.001075
	70.649000	3887.109819	-36.855893	19.978214	-0.000170	0.001082
	71.190000	3916.686478	-36.857236	19.977990	-0.000173	0.001088
	71.733000	3941.761185	-36.860234	19.979178	-0.000175	0.001097
	72.276000	3965.784472	-36.846238	19.978826	-0.000178	0.001104
	72.815000	3995.238761	-36.846177	19.978639	-0.000181	0.001112
	73.356000	4015.788976	-36.835383	19.974196	-0.000184	0.001120
	73.894000	4038.210174	-36.827879	19.976121	-0.000186	0.001129
	74.440000	4070.941098	-36.807923	19.972556	-0.000189	0.001136
	74.985000	4089.873123	-36.816711	19.976122	-0.000192	0.001143
	75.524000	4122.711927	-36.819255	19.978116	-0.000195	0.001151
	76.067000	4155.075740	-36.812045	19.975731	-0.000198	0.001161
	76.610000	4169.777928	-36.801560	19.980101	-0.000200	0.001167
	77.154000	4204.780761	-36.808590	19.979624	-0.000203	0.001176
	77.698000	4226.648072	-36.799998	19.975190	-0.000206	0.001185
	78.241000	4255.469579	-36.791222	19.981850	-0.000209	0.001193
	78.785000	4287.308487	-36.788012	19.982835	-0.000212	0.001201
	79.326000	4309.673332	-36.789071	19.980592	-0.000214	0.001208
	79.868000	4335.925056	-36.785980	19.981457	-0.000218	0.001216
	80.408000	4353.931252	-36.775787	19.982136	-0.000221	0.001224
	80.947000	4390.800239	-36.773578	19.981292	-0.000224	0.001234
	81.490000	4419.731236	-36.756263	19.976528	-0.000228	0.001243
	82.032000	4443.073438	-36.757277	19.983360	-0.000230	0.001251
	82.575000	4472.547052	-36.757747	19.979235	-0.000234	0.001259
	83.121000	4493.797682	-36.747639	19.980247	-0.000236	0.001267
	83.664000	4529.789145	-36.746859	19.982399	-0.000239	0.001276
	84.209000	4552.746523	-36.740625	19.980378	-0.000242	0.001284
	84.750000	4578.418599	-36.746199	19.985241	-0.000245	0.001293
	85.298000	4615.221573	-36.732310	19.981637	-0.000248	0.001300
	85.835000	4632.989470	-36.735186	19.979991	-0.000250	0.001310
	86.380000	4662.427664	-36.735868	19.981236	-0.000253	0.001318
	86.922000	4689.294464	-36.737382	19.983115	-0.000256	0.001327
	87.463000	4718.096653	-36.715741	19.980565	-0.000259	0.001335
	88.007000	4752.432895	-36.716492	19.977827	-0.000262	0.001345
	88.548000	4778.749028	-36.706763	19.981389	-0.000265	0.001354
	89.092000	4813.507127	-36.702551	19.984996	-0.000269	0.001363
	89.637000	4836.533744	-36.699379	19.981336	-0.000271	0.001372
	90.184000	4855.795853	-36.697402	19.978362	-0.000274	0.001380
	90.725000	4893.162380	-36.691750	19.983254	-0.000276	0.001389
	91.267000	4919.333602	-36.680260	19.985986	-0.000278	0.001398
	91.815000	4947.675293	-36.687634	19.986599	-0.000281	0.001407
	92.359000	4980.908591	-36.675487	19.985414	-0.000284	0.001417
	92.906000	5007.041171	-36.666895	19.982511	-0.000288	0.001427
	93.446000	5034.822534	-36.665369	19.981321	-0.000291	0.001437
	93.988000	5070.912223	-36.662831	19.981606	-0.000294	0.001445
	94.531000	5096.193039	-36.656665	19.977824	-0.000297	0.001454
	95.072000	5128.593896	-36.654137	19.985991	-0.000300	0.001462
	95.613000	5149.079714	-36.645944	19.985538	-0.000299	0.001460
	96.157000	5145.295884	-36.649287	19.983455	-0.000299	0.001461
	96.696000	5142.558645	-36.654884	19.988205	-0.000300	0.001462
	97.237000	5141.751964	-36.648259	19.985563	-0.000296	0.001446
	97.793000	5077.356005	-36.644086	19.988541	-0.000291	0.001432
	98.336000	5032.858163	-36.651377	19.987405	-0.000287	0.001418
	98.879000	4993.371078	-36.648324	19.986046	-0.000283	0.001406
	99.419000	4959.735245	-36.662381	19.985991	-0.000278	0.001395
	99.961000	4919.396397	-36.645619	19.985968	-0.000273	0.001382
	100.505000	4877.912740	-36.652665	19.987870	-0.000269	0.001371
	101.052000	4838.543199	-36.665150	19.989448	-0.000265	0.001359
	101.594000	4796.006512	-36.653505	19.986191	-0.000261	0.001346
	102.137000	4754.833614	-36.658442	19.985772	-0.000257	0.001335
	102.680000	4715.974488	-36.662033	19.988471	-0.000253	0.001324
	103.223000	4680.359796	-36.671790	19.983677	-0.000250	0.001312
	103.767000	4642.241336	-36.675181	19.983619	-0.000244	0.001300
	104.307000	4604.271009	-36.660458	19.986058	-0.000241	0.001288
	104.847000	4566.532544	-36.674099	19.985540	-0.000236	0.001278
	105.388000	4530.169138	-36.672042	19.985754	-0.000232	0.001265
	105.932000	4486.693744	-36.671394	19.984125	-0.000229	0.001255
	106.474000	4447.362851	-36.676911	19.986865	-0.000225	0.001244
	107.014000	4413.298727	-36.677928	19.986986	-0.000220	0.001231
	107.577000	4377.176844	-36.683100	19.981136	-0.000216	0.001221
	108.119000	4334.667536	-36.665321	19.982545	-0.000213	0.001209
	108.665000	4310.851955	-36.680769	19.984406	-0.000208	0.001199
	109.213000	4265.104656	-36.693869	19.984313	-0.000205	0.001188
	109.756000	4229.543104	-36.685573	19.980565	-0.000201	0.001176
	110.299000	4195.082888	-36.689711	19.981344	-0.000197	0.001165
	110.840000	4154.045251	-36.690352	19.978961	-0.000194	0.001156
	111.382000	4123.993598	-36.697553	19.983366	-0.000190	0.001145
	111.925000	4084.387377	-36.694268	19.984896	-0.000186	0.001134
	112.470000	4050.044702	-36.713883	19.982138	-0.000183	0.001123
	113.013000	4020.318299	-36.707903	19.978029	-0.000179	0.001112
	113.555000	3976.181145	-36.698229	19.981627	-0.000176	0.001100
	114.096000	3942.756252	-36.689718	19.981743	-0.000172	0.001089
	114.636000	3915.263114	-36.704931	19.978468	-0.000169	0.001079
	115.181000	3870.209791	-36.703942	19.978214	-0.000166	0.001067
	115.726000	3833.211999	-36.696310	19.975855	-0.000161	0.001054
	116.268000	3803.007387	-36.710515	19.979156	-0.000157	0.001045
	116.812000	3768.448956	-36.708132	19.975673	-0.000154	0.001033
	117.354000	3725.068571	-36.704879	19.979096	-0.000151	0.001022
	117.896000	3685.895481	-36.713687	19.976404	-0.000148	0.001011
	118.437000	3650.673675	-36.709049	19.979745	-0.000144	0.001000
	118.990000	3610.257558	-36.711429	19.978378	-0.000140	0.000988
	119.533000	3580.193030	-36.715435	19.973256	-0.000137	0.000978
	120.078000	3546.346284	-36.707594	19.972594	-0.000133	0.000967
	120.619000	3512.691145	-36.711011	19.974076	-0.000130	0.000956
	121.164000	3472.692055	-36.725013	19.977100	-0.000126	0.000946
	121.708000	3437.658638	-36.716743	19.975277	-0.000123	0.000935
	122.249000	3404.307816	-36.722089	19.975406	-0.000119	0.000922
	122.794000	3368.466108	-36.738048	19.973873	-0.000115	0.000912
	123.338000	3335.707819	-36.740580	19.981342	-0.000111	0.000900
	123.882000	3295.977625	-36.722935	19.975815	-0.000108	0.000890
	124.424000	3257.828588	-36.723589	19.976728	-0.000105	0.000880
	124.968000	3233.030829	-36.724256	19.970176	-0.000101	0.000869
	125.509000	3188.941988	-36.731833	19.975335	-9.761055E-5	0.000860
	126.053000	3157.809941	-36.739188	19.974744	-9.420095E-5	0.000849
	126.591000	3130.927052	-36.737095	19.972018	-9.006716E-5	0.000838
	127.131000	3087.718959	-36.745278	19.970297	-8.735932E-5	0.000827
	127.676000	3049.257557	-36.756858	19.975003	-8.335341E-5	0.000816
	128.216000	3024.944452	-36.745458	19.971757	-7.936859E-5	0.000806
	128.759000	2983.323957	-36.749774	19.969733	-7.630667E-5	0.000795
	129.309000	2948.970022	-36.755564	19.971612	-7.311181E-5	0.000785
	129.851000	2914.092792	-36.755216	19.971247	-6.997407E-5	0.000774
	130.393000	2878.088465	-36.757596	19.971648	-6.638664E-5	0.000765
	130.939000	2846.917776	-36.757422	19.966922	-6.251845E-5	0.000754
	131.477000	2818.777370	-36.759193	19.970904	-6.249609E-5	0.000757
	132.020000	2842.098629	-36.761322	19.971704	-6.526122E-5	0.000769
	132.560000	2874.159725	-36.756749	19.967405	-7.006724E-5	0.000779
	133.103000	2918.387034	-36.749928	19.967302	-7.472291E-5	0.000792
	133.649000	2946.836587	-36.757390	19.966632	-8.115108E-5	0.000814
	134.203000	3033.679458	-36.750817	19.969878	-9.102236E-5	0.000843
	134.748000	3127.573131	-36.747661	19.973351	-0.000101	0.000872
	135.293000	3229.903938	-36.737649	19.974952	-0.000110	0.000900
	135.835000	3326.174182	-36.724185	19.968989	-0.000119	0.000927
	136.376000	3410.606682	-36.715780	19.969604	-0.000129	0.000955
	136.919000	3503.998001	-36.721135	19.969252	-0.000138	0.000984
	137.461000	3593.834133	-36.735244	19.971947	-0.000148	0.001012
	138.003000	3694.385748	-36.715973	19.971338	-0.000157	0.001042
	138.548000	3788.802733	-36.706241	19.973333	-0.000167	0.001070
	139.107000	3884.193856	-36.692030	19.971784	-0.000176	0.001100
	139.649000	3974.100844	-36.700776	19.972963	-0.000186	0.001127
	140.193000	4061.202972	-36.687245	19.975142	-0.000196	0.001154
	140.737000	4155.053198	-36.694944	19.975992	-0.000205	0.001180
	141.279000	4241.780168	-36.699160	19.978149	-0.000214	0.001206
	141.825000	4331.621151	-36.688069	19.973214	-0.000223	0.001234
	142.364000	4426.801362	-36.679645	19.979689	-0.000232	0.001262
	142.911000	4510.340262	-36.681522	19.975873	-0.000241	0.001289
	143.450000	4591.872930	-36.676189	19.979468	-0.000251	0.001316
	143.992000	4690.418342	-36.663260	19.979616	-0.000260	0.001342
	144.536000	4775.090789	-36.675648	19.981471	-0.000268	0.001367
	145.075000	4854.894174	-36.648124	19.979285	-0.000276	0.001392
	145.630000	4931.850833	-36.661988	19.981585	-0.000284	0.001416
	146.172000	5005.997799	-36.644157	19.981154	-0.000292	0.001439
	146.714000	5075.175875	-36.640605	19.980288	-0.000298	0.001456
	147.261000	5134.802598	-36.645332	19.979515	-0.000303	0.001472
	147.803000	5184.905341	-36.620198	19.988263	-0.000307	0.001483
	148.347000	5220.133607	-36.630744	19.985981	-0.000311	0.001495
	148.888000	5263.238680	-36.621560	19.987424	-0.000314	0.001504
	149.431000	5292.308159	-36.620281	19.988802	-0.000318	0.001514
	149.975000	5323.290485	-36.620372	19.989337	-0.000321	0.001526
	150.517000	5357.565550	-36.618465	19.985662	-0.000325	0.001536
	151.060000	5389.876243	-36.607088	19.986889	-0.000328	0.001546
	151.602000	5422.413966	-36.607967	19.990794	-0.000331	0.001556
	152.143000	5462.390540	-36.598647	19.989372	-0.000334	0.001567
	152.683000	5489.010997	-36.587257	19.990387	-0.000338	0.001577
	153.224000	5526.200418	-36.580871	19.987194	-0.000341	0.001588
	153.767000	5559.393471	-36.584806	19.984313	-0.000345	0.001599
	154.307000	5592.084160	-36.569983	19.988891	-0.000349	0.001609
	154.852000	5621.446688	-36.577899	19.989232	-0.000351	0.001618
	155.403000	5648.216890	-36.571036	19.985967	-0.000355	0.001628
	155.948000	5691.262397	-36.563713	19.985460	-0.000358	0.001638
	156.489000	5724.395876	-36.564038	19.994022	-0.000362	0.001649
	157.035000	5761.813942	-36.549032	19.988772	-0.000365	0.001659
	157.573000	5788.341014	-36.551444	19.989984	-0.000369	0.001668
	158.117000	5823.034722	-36.554828	19.993282	-0.000372	0.001679
	158.657000	5850.420000	-36.556455	19.991726	-0.000376	0.001689
	159.202000	5885.026761	-36.529288	19.988574	-0.000379	0.001699
	159.743000	5916.268328	-36.529771	19.992480	-0.000382	0.001709
	160.285000	5958.545802	-36.529665	19.991618	-0.000385	0.001720
	160.831000	5989.193228	-36.526680	19.989891	-0.000388	0.001729
	161.375000	6014.833116	-36.514697	19.993364	-0.000391	0.001740
	161.916000	6049.422167	-36.516352	19.992422	-0.000395	0.001751
	162.459000	6080.010019	-36.514487	19.993644	-0.000398	0.001761
	163.004000	6113.014694	-36.513335	19.989701	-0.000401	0.001770
	163.545000	6153.236021	-36.504321	19.988443	-0.000405	0.001780
	164.090000	6187.132715	-36.501664	19.991203	-0.000408	0.001790
	164.637000	6215.738485	-36.498370	19.991849	-0.000412	0.001801
	165.185000	6258.325112	-36.491111	19.992456	-0.000415	0.001812
	165.730000	6278.893058	-36.489408	19.991164	-0.000418	0.001823
	166.273000	6313.771940	-36.481505	19.991417	-0.000421	0.001832
	166.815000	6349.710296	-36.487356	19.993744	-0.000424	0.001842
	167.360000	6377.288798	-36.466460	19.996467	-0.000427	0.001852
	167.903000	6417.033529	-36.463587	19.992866	-0.000431	0.001863
	168.459000	6442.790962	-36.466073	19.992593	-0.000434	0.001873
	169.003000	6485.284205	-36.454854	19.993689	-0.000437	0.001883
	169.544000	6511.896624	-36.468627	19.993770	-0.000441	0.001895
	170.090000	6553.473699	-36.445086	19.996985	-0.000444	0.001906
	170.632000	6577.809379	-36.431831	19.993232	-0.000447	0.001916
	171.171000	6619.236712	-36.441174	19.998056	-0.000450	0.001926
	171.716000	6645.436937	-36.439905	19.992121	-0.000453	0.001936
	172.257000	6680.697429	-36.435184	19.991504	-0.000457	0.001947
	172.799000	6709.498033	-36.421278	19.999135	-0.000460	0.001958
	173.341000	6737.453313	-36.420470	19.997829	-0.000464	0.001968
	173.883000	6778.825904	-36.409766	19.996471	-0.000467	0.001979
	174.422000	6811.402292	-36.419053	19.995858	-0.000470	0.001990
	174.967000	6855.877629	-36.403013	19.997587	-0.000474	0.001999
	175.507000	6893.426137	-36.405151	19.996449	-0.000477	0.002010
	176.049000	6923.355453	-36.397831	19.994233	-0.000481	0.002021
	176.592000	6958.844591	-36.399152	20.000500	-0.000484	0.002033
	177.140000	6990.342187	-36.393806	19.992961	-0.000487	0.002043
	177.681000	7020.430909	-36.383069	20.001796	-0.000490	0.002053
	178.228000	7050.906066	-36.378790	20.002121	-0.000494	0.002064
	178.774000	7086.495035	-36.379575	19.998236	-0.000498	0.002075
	179.316000	7128.943209	-36.363606	20.002914	-0.000501	0.002086
	179.861000	7159.379724	-36.364202	19.999755	-0.000505	0.002096
	180.400000	7198.960237	-36.356560	19.998594	-0.000508	0.002107
	180.943000	7227.015354	-36.368411	20.001487	-0.000512	0.002117
	181.486000	7263.427108	-36.349507	20.001408	-0.000515	0.002129
	182.029000	7301.239687	-36.352596	20.002580	-0.000519	0.002141
	182.571000	7337.923557	-36.349008	20.003350	-0.000523	0.002151
	183.115000	7373.452957	-36.340419	19.999442	-0.000526	0.002161
	183.658000	7408.364062	-36.340062	20.002939	-0.000530	0.002169
	184.202000	7429.278200	-36.331509	20.006570	-0.000533	0.002182
	184.751000	7476.218680	-36.323964	20.001307	-0.000537	0.002195
	185.296000	7511.904265	-36.322115	20.003732	-0.000540	0.002205
	185.841000	7539.371685	-36.314351	20.005318	-0.000544	0.002216
	186.386000	7578.747718	-36.307736	20.002092	-0.000547	0.002227
	186.929000	7615.239987	-36.302336	20.007369	-0.000551	0.002239
	187.469000	7659.227470	-36.302507	20.007511	-0.000555	0.002249
	188.012000	7688.066734	-36.287474	20.004699	-0.000558	0.002261
	188.553000	7715.479412	-36.292459	20.003063	-0.000561	0.002271
	189.095000	7758.235138	-36.289030	20.007801	-0.000565	0.002282
	189.637000	7793.816070	-36.267569	20.003271	-0.000568	0.002292
	190.183000	7831.053840	-36.281784	20.005984	-0.000572	0.002304
	190.725000	7860.508181	-36.269904	20.003070	-0.000576	0.002316
	191.270000	7908.743228	-36.272783	20.003324	-0.000579	0.002328
	191.810000	7947.365723	-36.273305	20.002759	-0.000583	0.002339
	192.359000	7973.665796	-36.268288	20.009026	-0.000587	0.002348
	192.900000	8016.857878	-36.252856	20.006060	-0.000590	0.002361
	193.439000	8048.910993	-36.249748	20.008799	-0.000594	0.002371
	193.983000	8080.870720	-36.244212	20.003793	-0.000597	0.002383
	194.539000	8115.516166	-36.243317	20.007266	-0.000601	0.002394
	195.080000	8158.260633	-36.243530	20.008366	-0.000604	0.002404
	195.625000	8189.189870	-36.243343	20.004762	-0.000607	0.002418
	196.167000	8232.470516	-36.231425	20.009309	-0.000611	0.002429
	196.708000	8264.127541	-36.220314	20.007701	-0.000615	0.002440
	197.251000	8304.005956	-36.224752	20.007245	-0.000619	0.002452
	197.791000	8345.080709	-36.217626	20.008514	-0.000622	0.002463
	198.333000	8375.483434	-36.206374	20.009255	-0.000626	0.002476
	198.877000	8408.895517	-36.211816	20.012692	-0.000630	0.002487
	199.418000	8453.589875	-36.207800	20.010337	-0.000634	0.002498
	199.963000	8487.485003	-36.196143	20.010565	-0.000637	0.002509
	200.506000	8521.346318	-36.200687	20.003574	-0.000641	0.002520
	201.049000	8562.237521	-36.198780	20.012280	-0.000644	0.002532
	201.587000	8591.624249	-36.173163	20.012977	-0.000649	0.002544
	202.134000	8633.566877	-36.181297	20.010251	-0.000653	0.002554
	202.688000	8680.356038	-36.170126	20.012921	-0.000657	0.002566
	203.228000	8712.460692	-36.184176	20.009739	-0.000660	0.002579
	203.773000	8745.141777	-36.172718	20.011811	-0.000663	0.002591
	204.318000	8790.910111	-36.161263	20.014244	-0.000667	0.002603
	204.861000	8820.523874	-36.166255	20.012058	-0.000671	0.002613
	205.402000	8858.874278	-36.153664	20.015251	-0.000675	0.002626
	205.945000	8895.121835	-36.162619	20.010721	-0.000678	0.002637
	206.486000	8935.953472	-36.145990	20.010915	-0.000682	0.002650
	207.030000	8973.381267	-36.135952	20.009416	-0.000686	0.002662
	207.570000	9015.634663	-36.122678	20.014576	-0.000690	0.002674
	208.114000	9049.756835	-36.117899	20.013425	-0.000694	0.002686
	208.666000	9086.817519	-36.127508	20.017680	-0.000698	0.002696
	209.208000	9129.980651	-36.112141	20.015075	-0.000702	0.002708
	209.752000	9171.284067	-36.102354	20.013328	-0.000705	0.002721
	210.295000	9198.303896	-36.118491	20.017120	-0.000709	0.002733
	210.839000	9239.971207	-36.110663	20.015708	-0.000713	0.002744
	211.381000	9279.400419	-36.104022	20.016882	-0.000717	0.002756
	211.921000	9315.134350	-36.083097	20.010459	-0.000720	0.002768
	212.459000	9351.288531	-36.094700	20.016217	-0.000724	0.002780
	213.003000	9400.149972	-36.086278	20.019516	-0.000728	0.002792
	213.550000	9431.220928	-36.091318	20.016673	-0.000732	0.002804
	214.093000	9469.495672	-36.088935	20.015729	-0.000736	0.002817
	214.637000	9507.664147	-36.074073	20.015660	-0.000740	0.002830
	215.178000	9542.794280	-36.080124	20.021538	-0.000743	0.002840
	215.719000	9587.110290	-36.066879	20.018073	-0.000748	0.002851
	216.257000	9615.278160	-36.063836	20.022781	-0.000751	0.002862
	216.800000	9658.260972	-36.061276	20.020835	-0.000756	0.002875
	217.342000	9697.255457	-36.040798	20.021261	-0.000760	0.002887
	217.890000	9739.528197	-36.049615	20.018130	-0.000764	0.002900
	218.441000	9783.375661	-36.060947	20.019447	-0.000768	0.002911
	218.984000	9815.538305	-36.038692	20.020625	-0.000771	0.002922
	219.527000	9852.405793	-36.039700	20.018721	-0.000776	0.002935
	220.071000	9891.572568	-36.036972	20.020972	-0.000780	0.002947
	220.611000	9941.128001	-36.029562	20.022261	-0.000784	0.002958
	221.153000	9972.851080	-36.024857	20.024543	-0.000788	0.002971
	221.695000	10014.177064	-36.027749	20.020456	-0.000792	0.002982
	222.233000	10050.363466	-36.018091	20.019154	-0.000796	0.002995
	222.778000	10090.262864	-36.010997	20.020144	-0.000800	0.003008
	223.319000	10125.320557	-36.009258	20.017049	-0.000805	0.003020
	223.860000	10175.325229	-36.005700	20.025535	-0.000808	0.003032
	224.417000	10211.706463	-35.992258	20.019118	-0.000813	0.003044
	224.957000	10248.148884	-35.988600	20.024844	-0.000816	0.003057
	225.499000	10292.466528	-35.993369	20.021421	-0.000821	0.003067
	226.041000	10323.885297	-35.972711	20.023867	-0.000824	0.003080
	226.579000	10367.736001	-35.981109	20.023458	-0.000828	0.003092
	227.126000	10404.094699	-35.973361	20.025179	-0.000832	0.003104
	227.670000	10442.670569	-35.968125	20.028407	-0.000836	0.003117
	228.212000	10488.189387	-35.956738	20.021323	-0.000841	0.003130
	228.758000	10523.717254	-35.958760	20.026156	-0.000845	0.003144
	229.310000	10569.247347	-35.960457	20.021530	-0.000849	0.003155
	229.855000	10607.132469	-35.948829	20.022777	-0.000853	0.003168
	230.397000	10650.464716	-35.955292	20.023113	-0.000858	0.003181
	230.942000	10690.848788	-35.943618	20.029915	-0.000863	0.003193
	231.483000	10729.104247	-35.940202	20.028295	-0.000866	0.003206
	232.035000	10768.762145	-35.919965	20.026636	-0.000870	0.003218
	232.580000	10804.768233	-35.928831	20.027850	-0.000874	0.003230
	233.126000	10849.446569	-35.918400	20.027488	-0.000879	0.003242
	233.670000	10887.748728	-35.918352	20.029298	-0.000882	0.003255
	234.213000	10937.478097	-35.915953	20.028931	-0.000887	0.003268
	234.759000	10970.128645	-35.915389	20.029047	-0.000891	0.003281
	235.302000	11007.221587	-35.905976	20.030852	-0.000894	0.003293
	235.843000	11052.220350	-35.891829	20.026936	-0.000899	0.003306
	236.387000	11096.657174	-35.900015	20.032381	-0.000903	0.003318
	236.931000	11131.473374	-35.892773	20.030763	-0.000907	0.003332
	237.476000	11175.309615	-35.894750	20.031504	-0.000910	0.003345
	238.018000	11217.630711	-35.870955	20.029510	-0.000915	0.003355
	238.562000	11258.718436	-35.876355	20.032906	-0.000918	0.003369
	239.106000	11288.448187	-35.880838	20.030943	-0.000922	0.003382
	239.645000	11331.125129	-35.858589	20.031393	-0.000926	0.003395
	240.187000	11370.369240	-35.851772	20.033935	-0.000931	0.003407
	240.727000	11407.420332	-35.853961	20.032863	-0.000934	0.003420
	241.272000	11456.487952	-35.844127	20.034227	-0.000939	0.003433
	241.820000	11490.990184	-35.851099	20.035492	-0.000943	0.003445
	242.360000	11538.811554	-35.843502	20.035072	-0.000947	0.003459
	242.908000	11574.518178	-35.838059	20.036495	-0.000951	0.003471
	243.448000	11612.780108	-35.831751	20.035226	-0.000955	0.003484
	243.990000	11656.136545	-35.826408	20.033523	-0.000959	0.003497
	244.533000	11701.262536	-35.841650	20.038049	-0.000963	0.003510
	245.076000	11738.796683	-35.831506	20.040508	-0.000967	0.003524
	245.614000	11782.629728	-35.817028	20.036110	-0.000971	0.003537
	246.158000	11822.825452	-35.811692	20.038051	-0.000974	0.003550
	246.701000	11863.776336	-35.807209	20.037432	-0.000979	0.003563
	247.248000	11897.544353	-35.815240	20.036933	-0.000984	0.003575
	247.791000	11943.694407	-35.804681	20.037888	-0.000988	0.003588
	248.337000	11984.358690	-35.786467	20.038352	-0.000991	0.003602
	248.881000	12026.868204	-35.790753	20.038192	-0.000996	0.003613
	249.424000	12070.603042	-35.779211	20.040983	-0.001000	0.003626
	249.968000	12110.024296	-35.789201	20.034362	-0.001004	0.003640
	250.512000	12152.712540	-35.774268	20.041730	-0.001008	0.003654
	251.057000	12194.162584	-35.764098	20.040823	-0.001013	0.003666
	251.599000	12234.574083	-35.775537	20.040880	-0.001016	0.003680
	252.141000	12273.378655	-35.761606	20.039253	-0.001021	0.003691
	252.682000	12315.772250	-35.762578	20.042446	-0.001026	0.003705
	253.221000	12351.920081	-35.766353	20.041527	-0.001031	0.003717
	253.764000	12393.532757	-35.750660	20.041271	-0.001035	0.003731
	254.304000	12439.689273	-35.751059	20.042881	-0.001040	0.003744
	254.843000	12482.923372	-35.741163	20.044015	-0.001044	0.003758
	255.380000	12525.592310	-35.737032	20.042474	-0.001048	0.003771
	255.924000	12567.134147	-35.729522	20.041421	-0.001053	0.003783
	256.465000	12605.806700	-35.726318	20.044050	-0.001057	0.003795
	257.010000	12649.314531	-35.735367	20.043725	-0.001060	0.003808
	257.550000	12685.338392	-35.699898	20.046401	-0.001065	0.003822
	258.094000	12725.340933	-35.721915	20.042266	-0.001069	0.003835
	258.636000	12765.531862	-35.703202	20.049608	-0.001073	0.003848
	259.188000	12811.316450	-35.706014	20.049665	-0.001078	0.003861
	259.730000	12854.666496	-35.697654	20.046609	-0.001082	0.003874
	260.273000	12901.737598	-35.698707	20.050188	-0.001086	0.003889
	260.831000	12939.854662	-35.679317	20.050552	-0.001091	0.003902
	261.374000	12983.151579	-35.693016	20.046027	-0.001095	0.003914
	261.919000	13023.838444	-35.685951	20.045928	-0.001100	0.003928
	262.463000	13068.283400	-35.662897	20.045715	-0.001104	0.003940
	263.005000	13108.968660	-35.678377	20.046047	-0.001108	0.003953
	263.547000	13148.370631	-35.659998	20.050333	-0.001112	0.003965
	264.096000	13196.681563	-35.669118	20.046628	-0.001117	0.003980
	264.639000	13237.498859	-35.660111	20.048821	-0.001121	0.003994
	265.182000	13276.371097	-35.659908	20.048592	-0.001126	0.004008
	265.726000	13325.813970	-35.647008	20.048702	-0.001129	0.004019
	266.268000	13358.538659	-35.631025	20.048324	-0.001133	0.004035
	266.813000	13408.086194	-35.648096	20.047180	-0.001137	0.004049
	267.357000	13436.941695	-35.637389	20.050241	-0.001142	0.004060
	267.898000	13490.527493	-35.637508	20.053321	-0.001146	0.004074
	268.440000	13538.500310	-35.632136	20.053445	-0.001150	0.004087
	268.982000	13568.779188	-35.638551	20.051832	-0.001154	0.004101
	269.520000	13610.746148	-35.622131	20.051386	-0.001159	0.004114
	270.067000	13652.374977	-35.621477	20.049934	-0.001162	0.004127
	270.607000	13699.908231	-35.613062	20.053338	-0.001166	0.004140
	271.146000	13738.450407	-35.616228	20.054170	-0.001171	0.004155
	271.698000	13787.226701	-35.596214	20.056173	-0.001176	0.004168
	272.239000	13824.622453	-35.598181	20.054893	-0.001181	0.004181
	272.783000	13870.101163	-35.582617	20.055490	-0.001184	0.004195
	273.330000	13908.235977	-35.578747	20.053386	-0.001189	0.004207
	273.872000	13957.113720	-35.575823	20.057708	-0.001193	0.004221
	274.415000	13995.095574	-35.574995	20.051257	-0.001197	0.004235
	274.957000	14031.794138	-35.565450	20.056938	-0.001202	0.004247
	275.501000	14079.419190	-35.574947	20.054098	-0.001206	0.004261
	276.047000	14119.289755	-35.561431	20.054466	-0.001211	0.004276
	276.591000	14170.830700	-35.550598	20.051019	-0.001215	0.004289
	277.130000	14212.535232	-35.560359	20.055772	-0.001219	0.004303
	277.674000	14247.665518	-35.537813	20.055735	-0.001223	0.004316
	278.217000	14296.057014	-35.543716	20.054453	-0.001227	0.004330
	278.760000	14338.556968	-35.531344	20.056199	-0.001232	0.004343
	279.300000	14384.201548	-35.531727	20.057099	-0.001237	0.004358
	279.843000	14435.880981	-35.524909	20.058034	-0.001241	0.004372
	280.383000	14467.741057	-35.539243	20.056072	-0.001246	0.004384
	280.928000	14514.040977	-35.529070	20.056759	-0.001250	0.004397
	281.476000	14550.898967	-35.519628	20.052798	-0.001254	0.004411
	282.020000	14601.064867	-35.515181	20.058909	-0.001259	0.004425
	282.563000	14633.027999	-35.510051	20.060236	-0.001263	0.004438
	283.103000	14679.120218	-35.507671	20.062102	-0.001268	0.004452
	283.649000	14723.768132	-35.495373	20.059496	-0.001272	0.004465
	284.191000	14766.123192	-35.502283	20.062641	-0.001277	0.004480
	284.735000	14813.603369	-35.495540	20.057089	-0.001281	0.004493
	285.274000	14861.056176	-35.488713	20.061084	-0.001285	0.004506
	285.817000	14900.203818	-35.482111	20.058661	-0.001289	0.004519
	286.357000	14935.723789	-35.483557	20.058012	-0.001295	0.004532
	286.901000	14973.087384	-35.477187	20.059883	-0.001298	0.004547
	287.440000	15029.843664	-35.478231	20.062995	-0.001302	0.004562
	287.986000	15067.282942	-35.467469	20.060459	-0.001307	0.004577
	288.531000	15118.063950	-35.465298	20.061669	-0.001311	0.004588
	289.077000	15150.592264	-35.475178	20.066530	-0.001314	0.004602
	289.621000	15196.613664	-35.435810	20.060783	-0.001319	0.004617
	290.163000	15239.401879	-35.442917	20.063588	-0.001323	0.004631
	290.708000	15293.883029	-35.433439	20.063322	-0.001328	0.004644
	291.249000	15330.043855	-35.445776	20.061372	-0.001332	0.004657
	291.797000	15371.007773	-35.427804	20.062611	-0.001336	0.004671
	292.341000	15413.726760	-35.422738	20.067129	-0.001341	0.004685
	292.881000	15458.381153	-35.424139	20.069141	-0.001345	0.004701
	293.426000	15502.083949	-35.406273	20.067940	-0.001350	0.004713
	293.968000	15540.843573	-35.414787	20.069510	-0.001355	0.004727
	294.513000	15585.182383	-35.408276	20.064444	-0.001359	0.004742
	295.066000	15626.981982	-35.412569	20.062646	-0.001365	0.004756
	295.604000	15670.940801	-35.389415	20.070487	-0.001369	0.004769
	296.147000	15711.679314	-35.402202	20.067253	-0.001373	0.004782
	296.690000	15758.217603	-35.389508	20.069054	-0.001377	0.004797
	297.231000	15804.090902	-35.388342	20.065601	-0.001382	0.004810
	297.775000	15844.404340	-35.388400	20.066533	-0.001386	0.004825
	298.317000	15901.180001	-35.372456	20.068083	-0.001391	0.004837
	298.857000	15938.889824	-35.376256	20.070695	-0.001395	0.004852
	299.402000	15976.873375	-35.374814	20.070027	-0.001399	0.004866
	299.956000	16022.279742	-35.356329	20.074141	-0.001404	0.004880
	300.498000	16070.228544	-35.372398	20.072131	-0.001408	0.004894
	301.042000	16111.329362	-35.348072	20.071429	-0.001413	0.004908
	301.586000	16149.723510	-35.358506	20.070995	-0.001418	0.004922
	302.129000	16199.152054	-35.327900	20.073178	-0.001422	0.004937
	302.672000	16248.599924	-35.344678	20.071985	-0.001427	0.004952
	303.214000	16289.212872	-35.339490	20.069259	-0.001431	0.004966
	303.758000	16333.951042	-35.336766	20.068088	-0.001436	0.004979
	304.304000	16371.544954	-35.332067	20.076946	-0.001439	0.004994
	304.845000	16410.119452	-35.324026	20.070536	-0.001444	0.005008
	305.383000	16453.129932	-35.318841	20.068823	-0.001448	0.005021
	305.927000	16505.775586	-35.324966	20.077685	-0.001452	0.005036
	306.476000	16547.306338	-35.309380	20.073994	-0.001457	0.005050
	307.019000	16596.380671	-35.313647	20.076532	-0.001461	0.005063
	307.562000	16638.006427	-35.309338	20.074985	-0.001467	0.005077
	308.113000	16668.898884	-35.296109	20.067955	-0.001471	0.005091
	308.658000	16720.591340	-35.294953	20.076809	-0.001476	0.005107
	309.199000	16763.819208	-35.283205	20.073656	-0.001480	0.005119
	309.742000	16807.602581	-35.293182	20.074485	-0.001485	0.005134
	310.284000	16853.371281	-35.274272	20.076854	-0.001491	0.005149
	310.838000	16898.531345	-35.269236	20.081037	-0.001495	0.005161
	311.382000	16937.192817	-35.265754	20.078482	-0.001500	0.005176
	311.924000	16983.058134	-35.260879	20.078844	-0.001505	0.005189
	312.467000	17027.952530	-35.258245	20.081375	-0.001510	0.005203
	313.009000	17067.311207	-35.264811	20.080364	-0.001514	0.005216
	313.550000	17109.476390	-35.260801	20.080902	-0.001519	0.005231
	314.091000	17164.080042	-35.252358	20.081292	-0.001524	0.005245
	314.635000	17206.332180	-35.240597	20.079260	-0.001528	0.005260
	315.178000	17242.005216	-35.245953	20.078395	-0.001532	0.005274
	315.723000	17286.366664	-35.240491	20.081973	-0.001537	0.005289
	316.262000	17328.462624	-35.223491	20.078308	-0.001542	0.005302
	316.804000	17380.514190	-35.232324	20.083797	-0.001546	0.005317
	317.347000	17426.268433	-35.221034	20.084369	-0.001551	0.005332
	317.889000	17470.457605	-35.209441	20.084063	-0.001556	0.005344
	318.427000	17516.875239	-35.219253	20.079300	-0.001560	0.005360
	318.970000	17559.661968	-35.208046	20.083262	-0.001565	0.005375
	319.515000	17603.762591	-35.196392	20.085243	-0.001570	0.005390
	320.060000	17643.259773	-35.198298	20.083895	-0.001574	0.005404
	320.623000	17695.593139	-35.180403	20.084303	-0.001578	0.005419
	321.170000	17727.801138	-35.180706	20.087866	-0.001582	0.005432
	321.713000	17774.085144	-35.191787	20.085082	-0.001587	0.005447
	322.257000	17817.408073	-35.185723	20.086042	-0.001592	0.005462
	322.800000	17859.932365	-35.171615	20.084935	-0.001597	0.005478
	323.345000	17899.341001	-35.178165	20.083518	-0.001603	0.005491
	323.901000	17942.844275	-35.160859	20.085961	-0.001607	0.005508
	324.442000	17993.222930	-35.164050	20.092474	-0.001611	0.005524
	324.984000	18034.261056	-35.155240	20.090577	-0.001616	0.005538
	325.525000	18082.921676	-35.140033	20.090054	-0.001621	0.005552
	326.064000	18120.676693	-35.134903	20.089993	-0.001626	0.005565
	326.610000	18171.251799	-35.132797	20.092645	-0.001630	0.005582
	327.151000	18215.825845	-35.135615	20.086597	-0.001635	0.005595
	327.693000	18251.553677	-35.142667	20.093150	-0.001640	0.005609
	328.235000	18294.941040	-35.137228	20.092798	-0.001644	0.005625
	328.783000	18339.767890	-35.117121	20.092068	-0.001649	0.005641
	329.322000	18381.883232	-35.113707	20.092750	-0.001653	0.005656
	329.868000	18430.357098	-35.104523	20.093170	-0.001659	0.005671
	330.408000	18470.298730	-35.115288	20.093273	-0.001664	0.005687
	330.948000	18518.999637	-35.114139	20.092832	-0.001668	0.005700
	331.492000	18559.896098	-35.105486	20.092706	-0.001673	0.005715
	332.034000	18600.040618	-35.093055	20.095126	-0.001677	0.005729
	332.576000	18645.113840	-35.094785	20.095765	-0.001682	0.005743
	333.119000	18684.052354	-35.075324	20.093849	-0.001686	0.005759
	333.664000	18734.271655	-35.087387	20.093146	-0.001691	0.005775
	334.205000	18771.944588	-35.082534	20.098516	-0.001696	0.005788
	334.750000	18816.009862	-35.074848	20.094775	-0.001701	0.005805
	335.291000	18859.902851	-35.063544	20.098781	-0.001706	0.005821
	335.836000	18900.490181	-35.071051	20.096722	-0.001710	0.005836
	336.379000	18946.357233	-35.054086	20.099092	-0.001715	0.005852
	336.919000	18995.365713	-35.066298	20.099725	-0.001719	0.005867
	337.458000	19037.215419	-35.064549	20.095100	-0.001724	0.005882
	338.000000	19081.699352	-35.035241	20.097136	-0.001728	0.005898
	338.548000	19130.161996	-35.040010	20.100037	-0.001733	0.005913
	339.087000	19171.266206	-35.050373	20.099250	-0.001737	0.005929
	339.632000	19215.044896	-35.024511	20.099765	-0.001742	0.005943
	340.177000	19253.057600	-35.028820	20.100759	-0.001748	0.005959
	340.721000	19292.300469	-35.025390	20.099572	-0.001753	0.005978
	341.263000	19339.700422	-35.025844	20.103016	-0.001758	0.005990
	341.807000	19388.723423	-35.019294	20.100586	-0.001763	0.006008
	342.348000	19441.159970	-35.016817	20.099230	-0.001768	0.006022
	342.890000	19475.036180	-35.002980	20.105304	-0.001773	0.006038
	343.433000	19519.180397	-35.004339	20.103657	-0.001778	0.006054
	343.978000	19559.416751	-35.010625	20.100076	-0.001783	0.006070
	344.519000	19603.362925	-34.996800	20.103708	-0.001788	0.006085
	345.067000	19644.985636	-34.986907	20.105261	-0.001793	0.006101
	345.608000	19685.498948	-34.978228	20.105331	-0.001797	0.006118
	346.151000	19732.469014	-34.971588	20.108631	-0.001803	0.006134
	346.695000	19770.702340	-34.966036	20.106442	-0.001808	0.006150
	347.237000	19816.699875	-34.970261	20.106500	-0.001813	0.006166
	347.783000	19861.554198	-34.961811	20.108534	-0.001818	0.006182
	348.327000	19906.519624	-34.960916	20.108561	-0.001823	0.006200
	348.869000	19947.704390	-34.950469	20.109523	-0.001828	0.006214
	349.410000	19991.903385	-34.946132	20.111936	-0.001833	0.006231
	349.952000	20033.959254	-34.939920	20.112880	-0.001839	0.006247
	350.492000	20077.101988	-34.938770	20.111337	-0.001844	0.006264
	351.045000	20114.343473	-34.932326	20.113501	-0.001849	0.006282
	351.587000	20167.100502	-34.938139	20.113546	-0.001855	0.006299
	352.134000	20203.976485	-34.940386	20.114361	-0.001860	0.006316
	352.677000	20247.903379	-34.926133	20.112434	-0.001865	0.006333
	353.216000	20290.923754	-34.909835	20.112970	-0.001870	0.006350
	353.759000	20337.079123	-34.914933	20.113030	-0.001875	0.006368
	354.309000	20378.872558	-34.916910	20.110870	-0.001880	0.006383
	354.851000	20419.753033	-34.900728	20.115612	-0.001886	0.006400
	355.396000	20457.033181	-34.910135	20.114158	-0.001890	0.006417
	355.940000	20505.875928	-34.905053	20.114794	-0.001895	0.006436
	356.485000	20550.198943	-34.889779	20.119820	-0.001901	0.006453
	357.027000	20590.791210	-34.882453	20.114941	-0.001906	0.006472
	357.571000	20636.824229	-34.879777	20.114018	-0.001911	0.006489
	358.115000	20678.282769	-34.873446	20.115564	-0.001916	0.006508
	358.661000	20719.232501	-34.881094	20.116116	-0.001922	0.006527
	359.205000	20761.104859	-34.868757	20.116375	-0.001928	0.006546
	359.750000	20803.080272	-34.876479	20.118114	-0.001933	0.006563
	360.293000	20842.540608	-34.858916	20.118705	-0.001939	0.006581
	360.835000	20887.066529	-34.880653	20.122030	-0.001944	0.006600
	361.379000	20929.896948	-34.871781	20.121270	-0.001949	0.006618
	361.921000	20973.110590	-34.846788	20.119691	-0.001954	0.006637
	362.462000	21015.786439	-34.844221	20.116665	-0.001960	0.006655
	363.005000	21055.678314	-34.833105	20.120702	-0.001966	0.006674
	363.546000	21093.373923	-34.839649	20.118850	-0.001971	0.006693
	364.089000	21133.513768	-34.829118	20.118396	-0.001977	0.006712
	364.630000	21182.689872	-34.829041	20.121552	-0.001984	0.006732
	365.171000	21217.169987	-34.810975	20.126872	-0.001989	0.006751
	365.713000	21269.503636	-34.814881	20.118705	-0.001995	0.006773
	366.255000	21301.645793	-34.812327	20.117541	-0.002001	0.006791
	366.798000	21343.545563	-34.798248	20.123848	-0.002007	0.006810
	367.339000	21386.338980	-34.792297	20.119390	-0.002012	0.006831
	367.884000	21423.786646	-34.793324	20.121628	-0.002019	0.006851
	368.445000	21463.723630	-34.787125	20.120720	-0.002024	0.006870
	368.988000	21506.236889	-34.786906	20.124516	-0.002030	0.006891
	369.535000	21546.568371	-34.782778	20.123705	-0.002036	0.006911
	370.077000	21586.830619	-34.785711	20.122950	-0.002043	0.006931
	370.618000	21628.786765	-34.772270	20.125090	-0.002049	0.006954
	371.160000	21660.394365	-34.773867	20.126618	-0.002056	0.006972
	371.703000	21698.220437	-34.766438	20.125666	-0.002062	0.006994
	372.243000	21734.354223	-34.755830	20.125541	-0.002068	0.007015
	372.786000	21778.070295	-34.759875	20.128487	-0.002075	0.007038
	373.329000	21811.424935	-34.747451	20.131387	-0.002082	0.007059
	373.870000	21859.781520	-34.753695	20.127307	-0.002088	0.007082
	374.410000	21898.374043	-34.743764	20.130432	-0.002094	0.007103
	374.957000	21940.061315	-34.738360	20.129386	-0.002102	0.007124
	375.498000	21975.948761	-34.739989	20.126742	-0.002108	0.007149
	376.041000	22019.777561	-34.734808	20.129902	-0.002116	0.007170
	376.587000	22054.373657	-34.722725	20.136280	-0.002122	0.007195
	377.126000	22091.951788	-34.717673	20.130873	-0.002129	0.007216
	377.665000	22122.765598	-34.703172	20.130171	-0.002137	0.007239
	378.218000	22174.679071	-34.715486	20.135844	-0.002144	0.007262
	378.759000	22204.302971	-34.714623	20.136383	-0.002151	0.007285
	379.306000	22241.845687	-34.697736	20.136709	-0.002158	0.007309
	379.849000	22274.103829	-34.712729	20.136066	-0.002166	0.007334
	380.388000	22309.910787	-34.699249	20.137385	-0.002173	0.007358
	380.935000	22351.557833	-34.683634	20.137493	-0.002182	0.007384
	381.476000	22393.882763	-34.681608	20.135879	-0.002189	0.007411
	382.016000	22424.854388	-34.681927	20.140386	-0.002197	0.007434
	382.556000	22462.021948	-34.679068	20.141486	-0.002205	0.007461
	383.099000	22498.749935	-34.665413	20.140897	-0.002213	0.007486
	383.639000	22538.603265	-34.666766	20.139243	-0.002222	0.007511
	384.184000	22564.675147	-34.665752	20.136383	-0.002230	0.007538
	384.738000	22602.237209	-34.653608	20.138518	-0.002239	0.007565
	385.277000	22634.646728	-34.647557	20.141037	-0.002248	0.007590
	385.821000	22676.446762	-34.653630	20.142225	-0.002256	0.007616
	386.362000	22707.075435	-34.642665	20.142555	-0.002265	0.007644
	386.906000	22734.412919	-34.634840	20.145057	-0.002274	0.007671
	387.448000	22768.838379	-34.637145	20.143088	-0.002283	0.007700
	387.999000	22814.747582	-34.627037	20.144521	-0.002292	0.007730
	388.541000	22838.198119	-34.619060	20.144966	-0.002302	0.007759
	389.084000	22871.448161	-34.614062	20.146920	-0.002312	0.007788
	389.627000	22908.435410	-34.606011	20.149424	-0.002322	0.007816
	390.170000	22942.110540	-34.614922	20.149229	-0.002331	0.007845
	390.710000	22968.969815	-34.603046	20.149276	-0.002341	0.007876
	391.250000	22997.044771	-34.600849	20.147590	-0.002351	0.007905
	391.795000	23033.252708	-34.602266	20.144093	-0.002360	0.007938
	392.344000	23070.921070	-34.595236	20.149553	-0.002370	0.007966
	392.887000	23094.920685	-34.599091	20.152511	-0.002380	0.007997
	393.431000	23129.333286	-34.576533	20.153677	-0.002391	0.008030
	393.983000	23159.242237	-34.573499	20.149220	-0.002401	0.008064
	394.528000	23191.152633	-34.584590	20.155981	-0.002412	0.008094
	395.072000	23216.836492	-34.560611	20.154140	-0.002424	0.008128
	395.616000	23244.826121	-34.565635	20.151665	-0.002435	0.008162
	396.155000	23272.435752	-34.550113	20.151654	-0.002446	0.008195
	396.701000	23307.785483	-34.549070	20.155721	-0.002459	0.008229
	397.241000	23338.819954	-34.557523	20.152268	-0.002471	0.008266
	397.782000	23358.831182	-34.542858	20.159901	-0.002482	0.008301
	398.335000	23387.938278	-34.540842	20.154839	-0.002495	0.008336
	398.877000	23415.293509	-34.535593	20.160067	-0.002508	0.008373
	399.419000	23440.090175	-34.534408	20.160293	-0.002520	0.008410
	399.963000	23467.743290	-34.536140	20.158454	-0.002533	0.008446
	400.507000	23486.968757	-34.522850	20.165418	-0.002546	0.008484
	401.049000	23514.865010	-34.515975	20.158794	-0.002560	0.008524
	401.594000	23540.040071	-34.517430	20.164228	-0.002573	0.008562
	402.135000	23564.450301	-34.519295	20.164812	-0.002586	0.008600
	402.677000	23582.576025	-34.522454	20.159381	-0.002600	0.008641
	403.221000	23610.346689	-34.500098	20.162598	-0.002614	0.008680
	403.763000	23630.451318	-34.499142	20.164431	-0.002628	0.008721
	404.305000	23656.959608	-34.489822	20.164313	-0.002642	0.008762
	404.847000	23672.864904	-34.486264	20.167023	-0.002657	0.008804
	405.387000	23707.767033	-34.499252	20.164985	-0.002672	0.008849
	405.931000	23720.616221	-34.476700	20.169674	-0.002688	0.008892
	406.475000	23737.866015	-34.479344	20.162056	-0.002703	0.008935
	407.015000	23749.050284	-34.458856	20.167344	-0.002720	0.008981
	407.577000	23779.232998	-34.473689	20.168434	-0.002735	0.009026
	408.117000	23804.594852	-34.459951	20.169864	-0.002752	0.009072
	408.661000	23806.530281	-34.459561	20.167041	-0.002768	0.009117
	409.206000	23836.967404	-34.457893	20.166954	-0.002785	0.009164
	409.750000	23853.272029	-34.450573	20.171277	-0.002801	0.009212
	410.295000	23871.249628	-34.437850	20.173620	-0.002820	0.009261
	410.845000	23892.325200	-34.433998	20.171350	-0.002837	0.009313
	411.389000	23908.616946	-34.439379	20.177380	-0.002861	0.009408
	411.932000	24108.386506	-34.417365	20.175080	-0.002940	0.009656
	412.476000	24246.684466	-34.404111	20.177787	-0.003060	0.009990
	413.020000	24250.659990	-34.369499	20.179608	-0.003183	0.010326
	413.562000	24279.569083	-34.352244	20.176757	-0.003301	0.010655
	414.101000	24325.243324	-34.330568	20.182830	-0.003419	0.010990
	414.643000	24366.954931	-34.293399	20.188046	-0.003538	0.011328
	415.185000	24401.047187	-34.270326	20.190941	-0.003657	0.011665
	415.728000	24430.531120	-34.254008	20.195695	-0.003774	0.012005
	416.268000	24466.148218	-34.225393	20.201378	-0.003896	0.012357
	416.813000	24490.940102	-34.209974	20.210077	-0.004015	0.012704
	417.354000	24523.032525	-34.198252	20.213148	-0.004135	0.013053
	417.895000	24553.690284	-34.168863	20.221471	-0.004254	0.013403
	418.437000	24575.252159	-34.142821	20.232475	-0.004374	0.013754
	418.977000	24606.288312	-34.120391	20.233037	-0.004492	0.014108
	419.516000	24632.276564	-34.100461	20.244614	-0.004611	0.014463
	420.059000	24654.400392	-34.071124	20.248349	-0.004733	0.014827
	420.603000	24676.295577	-34.065771	20.256294	-0.004854	0.015191
	421.148000	24694.915662	-34.041191	20.264042	-0.004974	0.015561
	421.704000	24718.073227	-34.007007	20.271141	-0.005098	0.015926
	422.246000	24738.177898	-33.982459	20.279042	-0.005218	0.016293
	422.791000	24758.844519	-33.950565	20.289624	-0.005338	0.016660
	423.332000	24777.134523	-33.935381	20.299343	-0.005458	0.017027
	423.876000	24796.200630	-33.918378	20.303280	-0.005583	0.017411
	424.433000	24822.568893	-33.882391	20.313474	-0.005705	0.017784
	424.973000	24831.891820	-33.872140	20.318712	-0.005826	0.018158
	425.519000	24853.997945	-33.855495	20.326809	-0.005952	0.018547
	426.081000	24871.230063	-33.837757	20.339610	-0.006074	0.018923
	426.622000	24879.546630	-33.809187	20.341177	-0.006196	0.019302
	427.164000	24900.652837	-33.778220	20.347577	-0.006318	0.019682
	427.707000	24915.909270	-33.762212	20.356135	-0.006440	0.020063
	428.252000	24936.062254	-33.737837	20.364125	-0.006562	0.020444
	428.797000	24950.629531	-33.717717	20.369608	-0.006686	0.020829
	429.339000	24967.929280	-33.693574	20.383632	-0.006809	0.021214
	429.885000	24976.786867	-33.665155	20.390826	-0.006931	0.021601
	430.431000	24998.640201	-33.646281	20.394670	-0.007053	0.021986
	430.974000	25013.218753	-33.625635	20.405096	-0.007177	0.022377
	431.519000	25027.847218	-33.604178	20.411403	-0.007302	0.022767
	432.062000	25046.602571	-33.580248	20.419061	-0.007425	0.023154
	432.601000	25056.155757	-33.553159	20.426558	-0.007551	0.023556
	433.164000	25072.090078	-33.533296	20.431939	-0.007674	0.023948
	433.706000	25089.101612	-33.515204	20.441948	-0.007800	0.024342
	434.248000	25097.703182	-33.483114	20.449585	-0.007924	0.024737
	434.792000	25109.623331	-33.462085	20.457658	-0.008047	0.025129
	435.333000	25133.708379	-33.436983	20.461637	-0.008170	0.025522
	435.874000	25141.923508	-33.413784	20.475151	-0.008295	0.025915
	436.414000	25148.546172	-33.399785	20.478875	-0.008418	0.026311
	436.955000	25169.264336	-33.374283	20.486934	-0.008544	0.026706
	437.498000	25180.981605	-33.352929	20.492331	-0.008667	0.027102
	438.041000	25194.978885	-33.323245	20.499817	-0.008791	0.027500
	438.587000	25212.673137	-33.315657	20.508710	-0.008916	0.027899
	439.127000	25216.038410	-33.276431	20.518741	-0.009039	0.028300
	439.671000	25240.580751	-33.240714	20.521021	-0.009165	0.028701
	440.213000	25251.410813	-33.228741	20.530961	-0.009290	0.029098
	440.756000	25259.102636	-33.206051	20.540697	-0.009413	0.029499
	441.302000	25273.484753	-33.177252	20.550849	-0.009538	0.029902
	441.847000	25296.495817	-33.161929	20.553830	-0.009663	0.030303
	442.389000	25296.922514	-33.147461	20.563774	-0.009786	0.030699
	442.932000	25306.290535	-33.113090	20.573516	-0.009910	0.031102
	443.476000	25321.621047	-33.090954	20.581232	-0.010033	0.031502
	444.017000	25337.793685	-33.088210	20.588621	-0.010156	0.031900
	444.554000	25345.834918	-33.052384	20.594924	-0.010278	0.032307
	445.104000	25355.011328	-33.025540	20.605614	-0.010403	0.032708
	445.645000	25375.639332	-33.008446	20.618362	-0.010525	0.033110
	446.190000	25382.282929	-32.990660	20.622331	-0.010648	0.033512
	446.736000	25388.910428	-32.946825	20.629459	-0.010772	0.033915
	447.280000	25405.213491	-32.937045	20.638145	-0.010894	0.034318
	447.824000	25411.204967	-32.905209	20.642725	-0.011016	0.034718
	448.363000	25435.924438	-32.896692	20.654932	-0.011138	0.035121
	448.905000	25440.257430	-32.873467	20.659816	-0.011260	0.035523
	449.449000	25452.175978	-32.849463	20.663944	-0.011381	0.035923
	449.989000	25458.822799	-32.823745	20.676787	-0.011502	0.036321
	450.529000	25476.233666	-32.798272	20.681811	-0.011622	0.036725
	451.072000	25483.835323	-32.787938	20.697824	-0.011745	0.037132
	451.615000	25506.041307	-32.755797	20.703033	-0.006857	0.018063
	452.156000	25498.323718	-32.731271	20.709984	-0.006450	0.017045
	452.699000	25516.753832	-32.714702	20.719545	-0.006313	0.016637
	453.241000	25523.685655	-32.686821	20.725958	-0.006236	0.016434
	453.786000	25539.801941	-32.676319	20.737691	-0.006179	0.016316
	454.328000	25545.028584	-32.632826	20.745108	-0.006129	0.016241
	454.869000	25558.120954	-32.626372	20.751276	-0.006090	0.016191
	455.415000	25559.167572	-32.599599	20.760944	-0.006058	0.016160
	455.967000	25585.685620	-32.583954	20.770614	-0.006026	0.016143
	456.513000	25590.163531	-32.552379	20.777366	-0.005981	0.016138
	457.056000	25603.898364	-32.545301	20.786810	-0.005925	0.016141
	457.603000	25606.141344	-32.488859	20.797139	-0.005841	0.016152
	458.146000	25613.094099	-32.485123	20.801686	-0.005747	0.016164
	458.689000	25625.915960	-32.466703	20.813029	-0.005656	0.016176
	459.230000	25636.889337	-32.440995	20.820644	-0.005599	0.016192
	459.770000	25641.948523	-32.415030	20.834469	-0.005510	0.016211
	460.313000	25655.710730	-32.388610	20.843650	-0.005399	0.016230
	460.859000	25666.516647	-32.377652	20.851215	-0.005200	0.016244
	461.400000	25678.156638	-32.355885	20.856423	-0.005023	0.016257
	461.942000	25684.074050	-32.316833	20.869551	-0.004861	0.016283
	462.500000	25693.847843	-32.290819	20.875454	-0.004728	0.016258
	463.041000	25699.269320	-32.281564	20.882711	-0.004571	0.016246
	463.586000	25711.437450	-32.261228	20.891767	-0.004414	0.016226
	464.131000	25722.090402	-32.242540	20.905237	-0.004163	0.016064
	464.677000	25731.392413	-32.215670	20.912847	-0.003845	0.015995
	465.219000	25737.211603	-32.187576	20.920766	-0.003296	0.015958
	465.761000	25751.481020	-32.157044	20.933699	-0.002442	0.015958
	466.303000	25765.111195	-32.144965	20.938294	-0.000920	0.015967
	466.848000	25764.457464	-32.125878	20.948420	0.006584	0.015942
	467.392000	25772.191159	-32.105873	20.956333	0.046293	0.015937
	467.933000	25781.403001	-32.082964	20.967765	0.046293	0.015945
	468.479000	25791.548748	-32.045654	20.969602	0.046293	0.015947
	469.021000	25797.084548	-32.043354	20.982897	0.046293	0.015956
	469.562000	25808.843696	-32.016590	20.988750	0.046293	0.015966
	470.106000	25812.002872	-31.985427	20.996629	0.046293	0.015980
	470.650000	25817.954095	-31.958844	21.006782	0.046293	0.015998
	471.190000	25835.073535	-31.935294	21.013906	0.046293	0.016011
	471.734000	25834.827177	-31.921524	21.018670	0.046293	0.016030
	472.278000	25843.280625	-31.912636	21.031341	0.046293	0.016054
	472.822000	25860.372691	-31.889246	21.038490	0.046293	0.016082
	473.374000	25863.870003	-31.851723	21.046433	0.046293	0.016086
	473.916000	25878.314934	-31.825954	21.053363	0.046293	0.016095
	474.460000	25875.202455	-31.805911	21.059591	0.046293	0.016100
	475.002000	25882.253437	-31.786264	21.068560	0.046293	0.016101
	475.546000	25895.245983	-31.773032	21.083165	0.046293	0.016095
	476.092000	25896.767604	-31.734369	21.090073	0.046293	0.013841
	476.637000	25908.563788	-31.710043	21.099145	-0.003942	0.009409
	477.177000	25906.774879	-31.701979	21.107891	-0.003938	0.009160
	477.741000	25913.875775	-31.675424	21.113788	-0.003880	0.008980
	478.282000	25913.763062	-31.637376	21.122508	-0.003810	0.008835
	478.824000	25922.160155	-31.619149	21.128484	-0.003759	0.008719
	479.376000	25934.341174	-31.602716	21.140070	-0.003709	0.008637
	479.916000	25947.398129	-31.576674	21.148831	-0.003680	0.008560
	480.461000	25948.819918	-31.553497	21.154509	-0.003660	0.008492
	481.005000	25950.145097	-31.537370	21.168482	-0.003636	0.008436
	481.546000	25968.526923	-31.510963	21.175608	-0.003609	0.008390
	482.083000	25965.465970	-31.479520	21.181099	-0.003585	0.008348
	482.629000	25979.049456	-31.459190	21.196813	-0.003570	0.008309
	483.166000	25977.973855	-31.438229	21.202347	-0.003552	0.008275
	483.708000	25992.576586	-31.422759	21.209287	-0.003545	0.008242
	484.251000	25988.944017	-31.400014	21.219957	-0.003537	0.008216
	484.792000	25997.191365	-31.369585	21.231550	-0.003536	0.008192
	485.336000	26012.254608	-31.354282	21.238291	-0.003524	0.008175
	485.878000	26015.516835	-31.328916	21.246966	-0.003515	0.008156
	486.422000	26018.791944	-31.300873	21.254313	-0.003505	0.008137
	486.965000	26025.669027	-31.274029	21.264539	-0.003499	0.008118
	487.509000	26031.694325	-31.260616	21.273175	-0.003489	0.008101
	488.050000	26045.313238	-31.237060	21.283457	-0.003482	0.008089
	488.593000	26040.407014	-31.204506	21.290360	-0.003476	0.008077
	489.136000	26048.957077	-31.181303	21.302118	-0.003469	0.008066
	489.677000	26051.517266	-31.169269	21.307173	-0.003467	0.008056
	490.220000	26064.537191	-31.145745	21.317511	-0.003461	0.008048
	490.765000	26071.947246	-31.123673	21.325558	-0.003457	0.008039
	491.306000	26068.615781	-31.106038	21.337472	-0.003455	0.008029
	491.851000	26078.463649	-31.083657	21.337891	-0.003452	0.008020
	492.407000	26078.098138	-31.049438	21.348811	-0.003450	0.008013
	492.947000	26089.797715	-31.025141	21.362288	-0.003447	0.008009
	493.489000	26096.710224	-31.022539	21.368790	-0.003440	0.008009
	494.032000	26102.592216	-30.996561	21.375915	-0.003433	0.008007
	494.572000	26114.865019	-30.966100	21.384255	-0.003429	0.008003
	495.115000	26111.982795	-30.959044	21.395828	-0.003426	0.008001
	495.660000	26127.347146	-30.930448	21.400800	-0.003426	0.007991
	496.201000	26124.328055	-30.901375	21.409205	-0.003424	0.007989
	496.747000	26121.271931	-30.878456	21.419792	-0.003420	0.007982
	497.289000	26134.573641	-30.865861	21.426951	-0.003408	0.007979
	497.832000	26135.191949	-30.832467	21.436444	-0.003407	0.007972
	498.375000	26142.729209	-30.810034	21.449562	-0.003401	0.007969
	498.921000	26152.862081	-30.788474	21.459011	-0.003391	0.007973
	499.465000	26148.854340	-30.770421	21.464437	-0.003379	0.007974
	500.008000	26161.606977	-30.740279	21.477244	-0.003371	0.007976
	500.552000	26162.758256	-30.715035	21.484839	-0.003364	0.007973
	501.092000	26163.025547	-30.696782	21.495553	-0.003357	0.007970
	501.636000	26169.754496	-30.666444	21.503664	-0.003351	0.007969
	502.176000	26174.705805	-30.653559	21.515579	-0.003346	0.007970
	502.719000	26175.771745	-30.627391	21.520336	-0.003340	0.007968
	503.260000	26172.276041	-30.607912	21.530198	-0.003336	0.007963
	503.805000	26186.558351	-30.585701	21.538703	-0.003330	0.007955
	504.348000	26186.543859	-30.564122	21.548950	-0.003328	0.007948
	504.891000	26197.739452	-30.528660	21.558790	-0.003328	0.007942
	505.435000	26202.040247	-30.517959	21.564282	-0.003326	0.007939
	505.973000	26201.368802	-30.491507	21.577796	-0.003320	0.007937
	506.514000	26202.626354	-30.463671	21.583963	-0.003317	0.007933
	507.059000	26207.619528	-30.456100	21.593822	-0.003314	0.007932
	507.602000	26217.942403	-30.436250	21.602184	-0.003311	0.007933
	508.143000	26217.517314	-30.397529	21.607956	-0.003310	0.007931
	508.684000	26223.563548	-30.375283	21.618047	-0.003305	0.007933
	509.233000	26214.417715	-30.358550	21.627811	-0.003303	0.007934
	509.776000	26219.320719	-30.332150	21.636849	-0.003298	0.007934
	510.322000	26234.285748	-30.310146	21.642692	-0.003299	0.007929
	510.870000	26234.003966	-30.276474	21.657989	-0.003298	0.007926
	511.413000	26236.986023	-30.269451	21.664322	-0.003293	0.007924
	511.956000	26239.233836	-30.258482	21.670054	-0.003297	0.007917
	512.501000	26246.341179	-30.211646	21.680739	-0.003300	0.007913
	513.040000	26247.387798	-30.193136	21.693026	-0.003299	0.007912
	513.584000	26256.327527	-30.176735	21.698473	-0.003300	0.007906
	514.126000	26249.933496	-30.148570	21.708720	-0.003301	0.007902
	514.671000	26256.755836	-30.126679	21.714742	-0.003302	0.007895
	515.215000	26252.010629	-30.105289	21.726252	-0.003303	0.007892
	515.760000	26266.088450	-30.083662	21.735713	-0.003301	0.007888
	516.303000	26264.473437	-30.052499	21.743176	-0.003305	0.007883
	516.844000	26270.878741	-30.042342	21.752052	-0.003304	0.007881
	517.390000	26266.268790	-30.007878	21.764329	-0.003306	0.007878
	517.931000	26273.224775	-29.992659	21.768543	-0.003308	0.007874
	518.476000	26271.118657	-29.983996	21.781632	-0.003311	0.007867
	519.018000	26283.517059	-29.947919	21.787271	-0.003312	0.007864
	519.559000	26280.177542	-29.928791	21.797470	-0.003310	0.007863
	520.102000	26288.880575	-29.893322	21.804936	-0.003312	0.007858
	520.647000	26281.654078	-29.878538	21.814858	-0.003314	0.007856
	521.193000	26295.306811	-29.856131	21.828027	-0.003319	0.007851
	521.737000	26290.448893	-29.830829	21.832723	-0.003321	0.007848
	522.282000	26290.748386	-29.805534	21.844543	-0.003326	0.007843
	522.822000	26303.312636	-29.795944	21.853499	-0.003328	0.007840
	523.367000	26296.251989	-29.769070	21.858614	-0.003327	0.007840
	523.909000	26300.472276	-29.751658	21.869054	-0.003330	0.007833
	524.448000	26313.311865	-29.712141	21.876696	-0.003335	0.007830
	524.991000	26300.921516	-29.689306	21.884641	-0.003330	0.007835
	525.532000	26307.912926	-29.667679	21.896233	-0.003326	0.007836
	526.074000	26315.384171	-29.651442	21.904766	-0.003327	0.007832
	526.619000	26310.428031	-29.628085	21.916202	-0.003328	0.007828
	527.165000	26310.436083	-29.608631	21.926207	-0.003331	0.007824
	527.706000	26316.773759	-29.577919	21.932684	-0.003333	0.007822
	528.250000	26314.438994	-29.564558	21.944755	-0.003333	0.007821
	528.796000	26321.285488	-29.541047	21.954087	-0.003332	0.007818
	529.338000	26327.650538	-29.520005	21.963821	-0.003335	0.007814
	529.883000	26329.325128	-29.488501	21.974292	-0.003336	0.007809
	530.428000	26330.106067	-29.466986	21.982291	-0.003340	0.007802
	530.968000	26326.041967	-29.456865	21.993458	-0.003342	0.007799
	531.513000	26323.977713	-29.428523	22.002021	-0.003341	0.007798
	532.053000	26332.086590	-29.400857	22.007809	-0.003342	0.007795
	532.598000	26328.502325	-29.387544	22.019649	-0.003345	0.007789
	533.147000	26330.391068	-29.342019	22.027361	-0.003346	0.007789
	533.691000	26336.931629	-29.342454	22.037406	-0.003351	0.007784
	534.235000	26332.986682	-29.300564	22.043766	-0.003349	0.007784
	534.778000	26340.082754	-29.283693	22.055774	-0.003347	0.007784
	535.321000	26326.220696	-29.255448	22.063780	-0.003343	0.007785
	535.866000	26335.447040	-29.237369	22.076654	-0.003346	0.007783
	536.410000	26341.235645	-29.228452	22.084059	-0.003344	0.007781
	536.952000	26337.099086	-29.197282	22.096259	-0.003348	0.007777
	537.495000	26339.201985	-29.179358	22.103534	-0.003348	0.007775
	538.039000	26340.148772	-29.152230	22.111256	-0.003351	0.007773
	538.585000	26341.823362	-29.124481	22.122901	-0.003355	0.007770
	539.126000	26342.179211	-29.113487	22.128483	-0.003355	0.007769
	539.669000	26339.691481	-29.093279	22.140065	-0.003352	0.007770
	540.212000	26350.241394	-29.068699	22.153378	-0.003347	0.007770
	540.755000	26341.997261	-29.025898	22.160906	-0.003344	0.007766
	541.297000	26343.208117	-29.018433	22.173695	-0.003347	0.007760
	541.837000	26345.985682	-28.997933	22.180165	-0.003346	0.007760
	542.383000	26341.153527	-28.979371	22.193729	-0.003343	0.007761
	542.929000	26344.652451	-28.944959	22.200691	-0.003343	0.007758
	543.468000	26355.073550	-28.929131	22.213289	-0.003344	0.007759
	544.013000	26345.212795	-28.904058	22.226992	-0.003344	0.007757
	544.555000	26352.841838	-28.880231	22.235239	-0.003346	0.007753
	545.094000	26349.600542	-28.858465	22.245240	-0.003347	0.007752
	545.641000	26341.349968	-28.841986	22.259110	-0.003349	0.007750
	546.183000	26352.407089	-28.816774	22.264890	-0.003351	0.007747
	546.725000	26347.600695	-28.784636	22.277917	-0.003354	0.007742
	547.272000	26338.113502	-28.769198	22.288470	-0.003352	0.007742
	547.815000	26351.431319	-28.746366	22.298287	-0.003349	0.007745
	548.356000	26350.420125	-28.725434	22.312463	-0.003352	0.007741
	548.896000	26339.889532	-28.691675	22.322245	-0.003358	0.007737
	549.437000	26342.317687	-28.691984	22.335087	-0.003360	0.007737
	549.980000	26337.929941	-28.649196	22.343605	-0.003360	0.007734
	550.525000	26335.290853	-28.638595	22.349911	-0.003365	0.007731
	551.069000	26346.357635	-28.616024	22.363053	-0.003368	0.007729
	551.615000	26343.069643	-28.576685	22.375984	-0.003368	0.007728
	552.154000	26343.776512	-28.561581	22.388051	-0.003374	0.007720
	552.696000	26332.854647	-28.546700	22.398122	-0.003382	0.007715
	553.241000	26338.830034	-28.520616	22.406938	-0.003384	0.007713
	553.792000	26332.160660	-28.502589	22.423671	-0.003388	0.007709
	554.332000	26335.862468	-28.471423	22.429265	-0.003392	0.007706
	554.874000	26333.400498	-28.446584	22.442281	-0.003398	0.007702
	555.418000	26337.379259	-28.429285	22.453364	-0.003400	0.007700
	555.959000	26328.305882	-28.403490	22.467487	-0.003403	0.007695
	556.516000	26338.662575	-28.386912	22.479864	-0.003405	0.007693
	557.060000	26328.014440	-28.360519	22.493886	-0.003404	0.007692
	557.603000	26322.892450	-28.338553	22.500961	-0.003406	0.007691
	558.145000	26314.970354	-28.313718	22.513082	-0.003409	0.007689
	558.688000	26321.689645	-28.297056	22.525590	-0.003415	0.007687
	559.233000	26321.948883	-28.281061	22.541465	-0.003419	0.007682
	559.778000	26321.027859	-28.241925	22.550177	-0.003423	0.007676
	560.320000	26310.925577	-28.213660	22.561738	-0.003419	0.007679
	560.862000	26309.956248	-28.207973	22.576270	-0.003422	0.007675
	561.406000	26304.128997	-28.179860	22.587858	-0.003427	0.007671
	561.953000	26300.052016	-28.165636	22.602366	-0.003429	0.007669
	562.496000	26302.583224	-28.126081	22.615416	-0.003427	0.007670
	563.039000	26306.431558	-28.116951	22.627680	-0.003425	0.007674
	563.580000	26289.109220	-28.090812	22.640089	-0.003422	0.007675
	564.129000	26294.598332	-28.075306	22.651219	-0.003427	0.007675
	564.671000	26287.437852	-28.038701	22.666639	-0.003427	0.007676
	565.211000	26283.188582	-28.022860	22.674672	-0.003432	0.007673
	565.757000	26282.137134	-28.013463	22.690191	-0.003430	0.007673
	566.302000	26269.626020	-27.975151	22.703709	-0.003428	0.007672
	566.843000	26270.973742	-27.944716	22.716638	-0.003432	0.007671
	567.387000	26260.732985	-27.923669	22.731510	-0.003435	0.007666
	567.938000	26255.166586	-27.908572	22.743137	-0.003439	0.007661
	568.480000	26242.618440	-27.882922	22.762527	-0.003440	0.007659
	569.021000	26243.515310	-27.868904	22.775248	-0.003439	0.007662
	569.564000	26238.446458	-27.834624	22.788299	-0.003439	0.007661
	570.107000	26226.416789	-27.815740	22.807632	-0.003437	0.007662
	570.650000	26226.344331	-27.802414	22.817652	-0.003435	0.007662
	571.194000	26212.664226	-27.777283	22.833810	-0.003432	0.007666
	571.734000	26207.254016	-27.757530	22.847825	-0.003431	0.007668
	572.276000	26194.182562	-27.724641	22.858327	-0.003433	0.007666
	572.819000	26197.724961	-27.713296	22.876346	-0.003434	0.007666
	573.360000	26190.453380	-27.688744	22.893226	-0.003434	0.007666
	573.918000	26173.332320	-27.663458	22.909989	-0.003434	0.007663
	574.461000	26171.139251	-27.639477	22.925109	-0.003444	0.007655
	575.004000	26170.955691	-27.615370	22.931066	-0.003448	0.007653
	575.550000	26148.382556	-27.581756	22.944830	-0.003447	0.007655
	576.092000	26134.763641	-27.569393	22.961035	-0.003445	0.007654
	576.631000	26126.657987	-27.551260	22.980779	-0.003449	0.007650
	577.174000	26116.422064	-27.515428	22.991921	-0.003453	0.007647
	577.715000	26110.639903	-27.512529	23.004539	-0.003456	0.007643
	578.260000	26096.335051	-27.469439	23.017459	-0.003460	0.007639
	578.801000	26085.767431	-27.456754	23.036908	-0.003460	0.007638
	579.345000	26056.239928	-27.442095	23.052493	-0.003462	0.007635
	579.884000	26060.067328	-27.397616	23.068670	-0.003466	0.007630
	580.429000	26049.539964	-27.377599	23.086102	-0.003471	0.007630
	580.981000	26032.763485	-27.365523	23.101804	-0.003471	0.007629
	581.523000	26009.274164	-27.340424	23.113323	-0.003477	0.007624
	582.066000	26000.534100	-27.320854	23.135900	-0.003485	0.007618
	582.610000	25977.930381	-27.290106	23.154605	-0.003486	0.007616
	583.149000	25959.629063	-27.273145	23.170678	-0.003486	0.007615
	583.694000	25942.582079	-27.234917	23.179819	-0.003482	0.007617
	584.238000	25928.963169	-27.226538	23.199716	-0.003487	0.007616
	584.782000	25906.039025	-27.212494	23.216883	-0.003484	0.007618
	585.326000	25883.966667	-27.194589	23.235666	-0.003483	0.007616
	585.868000	25859.501584	-27.157736	23.253009	-0.003479	0.007618
	586.410000	25837.100752	-27.140253	23.267183	-0.003475	0.007620
	586.952000	25807.793857	-27.108124	23.285425	-0.003471	0.007626
	587.494000	25785.816506	-27.092267	23.302894	-0.003467	0.007630
	588.035000	25765.177214	-27.065648	23.318150	-0.003468	0.007630
	588.583000	25731.902839	-27.053446	23.335451	-0.003467	0.007631
	589.128000	25695.311497	-27.020854	23.355896	-0.003466	0.007634
	589.675000	25666.693766	-26.995568	23.367483	-0.003462	0.007639
	590.216000	25634.459576	-26.971274	23.389911	-0.003468	0.007634
	590.759000	25597.399679	-26.958573	23.409593	-0.003466	0.007634
	591.301000	25563.975568	-26.949241	23.427737	-0.003470	0.007632
	591.844000	25518.199774	-26.917318	23.442864	-0.003467	0.007632
	592.389000	25480.887085	-26.887527	23.457266	-0.003473	0.007626
	592.928000	25432.291873	-26.859684	23.482109	-0.003478	0.007622
	593.475000	25385.562864	-26.836041	23.501288	-0.003484	0.007617
	594.022000	25339.295982	-26.824792	23.519786	-0.003483	0.007617
	594.563000	25283.271420	-26.798924	23.532147	-0.003488	0.007610
	595.106000	25228.918228	-26.756863	23.554614	-0.003491	0.007608
	595.651000	25161.142596	-26.762966	23.574144	-0.003493	0.007605
	596.195000	25096.645295	-26.727323	23.591413	-0.003492	0.007604
	596.738000	25027.715184	-26.703271	23.612282	-0.003487	0.007609
	597.282000	24936.115389	-26.683312	23.629447	-0.003487	0.007606
	597.821000	24827.798749	-26.663735	23.645584	-0.003286	0.007349
	598.368000	28.288850	-26.637693	23.805141	-0.003225	0.007347
	598.912000	23.155728	-26.616300	24.004145	-0.003215	0.007348
	599.454000	17.030759	-26.587888	24.200395	-0.003211	0.007348
	600.000000	19.929009	-26.567336	24.388857	-0.003205	0.007351
	600.545000	18.009724	-26.540243	24.586293	-0.003202	0.007353
	601.088000	13.285576	-26.534836	24.785831	-0.003202	0.007354
	601.636000	14.884444	-26.501574	24.980141	-0.003201	0.007348
	602.177000	14.752413	-26.482178	25.173940	-0.003206	0.007347
	602.718000	15.728157	-26.458622	25.370574	-0.003203	0.007349
	603.259000	17.739220	-26.433468	25.502602	-0.003205	0.007343
	603.799000	9.778694	-26.407393	25.525239	-0.003207	0.007338
	604.341000	10.867148	-26.400962	25.551817	-0.003208	0.007340
	604.892000	9.242518	-26.397307	25.574501	-0.003210	0.007336
	605.438000	8.648376	-26.403844	25.591964	-0.003211	0.007337
	605.977000	8.888287	-26.382623	25.607979	-0.003218	0.007332
	606.521000	11.929839	-26.398730	25.617860	-0.003220	0.007329
	607.071000	15.718496	-26.394010	25.627628	-0.003218	0.007328
