LabVIEW Measurement	
Writer_Version	2
Reader_Version	2
Separator	Tab
Decimal_Separator	.
Multi_Headings	No
X_Columns	No
Time_Pref	Absolute
Operator	mechlab
Description	Data file
Date	2024/02/09
Time	16:43:37.4739999771118164063
***End_of_Header***	
	
Channels	6						
Samples	1	1	1	1	1	1	
Date	2024/02/09	2024/02/09	2024/02/09	2024/02/09	2024/02/09	2024/02/09	
Time	16:43:37.4739999771118164063	16:43:37.5819997787475585938	16:43:37.6900000572204589844	16:43:37.7979998588562011719	16:43:37.9050002098083496094	16:43:38.0120000839233398438	
X_Dimension	Time	Time	Time	Time	Time	Time	
X0	0.0000000000000000E+0	0.0000000000000000E+0	0.0000000000000000E+0	0.0000000000000000E+0	0.0000000000000000E+0	0.0000000000000000E+0	
Delta_X	1.000000	1.000000	1.000000	1.000000	1.000000	1.000000	
***End_of_Header***							
X_Value	Untitled	Untitled 1	Untitled 2	Untitled 3	Untitled 4	Untitled 5	Comment
	0.000000	204.892104	-34.965982	23.453762	-1.098111E-6	1.408252E-5
	0.544000	358.581472	-34.948415	23.446991	-7.259761E-6	3.054127E-5
	1.088000	514.951721	-34.944953	23.447177	-1.197302E-5	4.546581E-5
	1.630000	645.868896	-34.938657	23.448956	-1.579163E-5	5.819647E-5
	2.172000	763.859875	-34.915133	23.446273	-1.951190E-5	6.879524E-5
	2.714000	855.755335	-34.937591	23.446627	-2.314008E-5	7.946740E-5
	3.253000	936.643884	-34.929057	23.446653	-2.614737E-5	8.745522E-5
	3.794000	1030.191347	-34.918627	23.450833	-2.941965E-5	9.620027E-5
	4.336000	1098.958772	-34.915358	23.446320	-3.198272E-5	0.000103
	4.885000	1169.154390	-34.904773	23.450410	-3.480332E-5	0.000111
	5.426000	1224.246905	-34.899395	23.452271	-3.617691E-5	0.000117
	5.970000	1290.969455	-34.898815	23.451561	-3.796481E-5	0.000123
	6.515000	1337.299594	-34.895775	23.452228	-3.966437E-5	0.000129
	7.057000	1379.878110	-34.891927	23.452638	-4.173344E-5	0.000134
	7.597000	1428.618628	-34.887593	23.451213	-4.357856E-5	0.000138
	8.139000	1470.063606	-34.881068	23.450952	-4.471822E-5	0.000142
	8.684000	1513.017285	-34.884656	23.450915	-4.608805E-5	0.000147
	9.229000	1552.913310	-34.878907	23.451572	-4.787467E-5	0.000151
	9.771000	1591.791727	-34.864110	23.454646	-4.936393E-5	0.000154
	10.319000	1632.810019	-34.867282	23.454149	-5.036299E-5	0.000158
	10.865000	1665.492622	-34.854369	23.453554	-5.240713E-5	0.000163
	11.407000	1700.930173	-34.867678	23.451931	-5.380432E-5	0.000166
	11.957000	1739.575121	-34.841784	23.456382	-5.456324E-5	0.000171
	12.501000	1771.462315	-34.841468	23.458245	-5.583600E-5	0.000173
	13.043000	1801.819877	-34.844882	23.453340	-5.726303E-5	0.000177
	13.585000	1830.556030	-34.832306	23.456004	-5.830811E-5	0.000181
	14.132000	1864.871314	-34.832815	23.456933	-5.946764E-5	0.000185
	14.673000	1897.322058	-34.840215	23.458176	-6.112234E-5	0.000189
	15.228000	1928.911377	-34.831376	23.452616	-6.235900E-5	0.000193
	15.767000	1953.440236	-34.812173	23.454587	-6.315275E-5	0.000195
	16.312000	1990.476656	-34.823792	23.457074	-6.399378E-5	0.000201
	16.856000	2016.205070	-34.797862	23.460844	-6.515454E-5	0.000204
	17.398000	2049.919773	-34.806019	23.455244	-6.619836E-5	0.000207
	17.938000	2086.089939	-34.798448	23.457234	-6.695727E-5	0.000210
	18.480000	2107.546654	-34.791820	23.459071	-6.788289E-5	0.000213
	19.024000	2142.737855	-34.790078	23.460301	-6.907101E-5	0.000217
	19.565000	2178.085241	-34.795923	23.456669	-6.981250E-5	0.000221
	20.110000	2199.498482	-34.774643	23.458208	-7.147836E-5	0.000224
	20.650000	2237.195060	-34.790365	23.460138	-7.209418E-5	0.000228
	21.193000	2259.600147	-34.776456	23.455643	-7.284438E-5	0.000232
	21.734000	2294.280936	-34.767594	23.459575	-7.379984E-5	0.000235
	22.277000	2320.336209	-34.765452	23.453071	-7.478144E-5	0.000239
	22.819000	2344.270928	-34.754787	23.452651	-7.605290E-5	0.000242
	23.361000	2381.845137	-34.753309	23.455625	-7.706185E-5	0.000245
	23.907000	2421.182449	-34.763021	23.459006	-7.823503E-5	0.000249
	24.448000	2438.737797	-34.748285	23.457712	-7.900760E-5	0.000252
	24.992000	2481.913682	-34.734344	23.457997	-8.021934E-5	0.000255
	25.535000	2498.535150	-34.733961	23.454112	-8.100808E-5	0.000259
	26.074000	2538.822444	-34.740308	23.454744	-8.300109E-5	0.000262
	26.620000	2563.539693	-34.739265	23.455177	-8.399013E-5	0.000264
	27.168000	2591.488491	-34.728602	23.457295	-8.537105E-5	0.000267
	27.707000	2622.726803	-34.719251	23.456229	-8.727322E-5	0.000270
	28.254000	2647.402188	-34.716024	23.455128	-8.821373E-5	0.000275
	28.805000	2671.847324	-34.717731	23.454733	-8.929730E-5	0.000279
	29.350000	2710.746680	-34.703880	23.459536	-9.037963E-5	0.000281
	29.894000	2742.862519	-34.703465	23.457511	-9.178168E-5	0.000284
	30.437000	2764.704060	-34.697034	23.459531	-9.376594E-5	0.000288
	30.976000	2788.593698	-34.687663	23.456823	-9.548769E-5	0.000290
	31.519000	2818.595424	-34.689121	23.452469	-9.640455E-5	0.000294
	32.058000	2848.413596	-34.692033	23.454551	-9.794466E-5	0.000297
	32.598000	2883.569379	-34.675297	23.453928	-9.885281E-5	0.000300
	33.143000	2920.704024	-34.682301	23.455622	-9.980947E-5	0.000303
	33.685000	2939.233509	-34.674884	23.452303	-0.000102	0.000308
	34.229000	2957.316985	-34.667474	23.453744	-0.000102	0.000311
	34.781000	2997.422338	-34.645148	23.454321	-0.000104	0.000313
	35.325000	3031.832628	-34.658850	23.447946	-0.000105	0.000317
	35.866000	3045.098567	-34.657182	23.455907	-0.000105	0.000319
	36.413000	3079.578094	-34.636369	23.452239	-0.000106	0.000324
	36.951000	3106.374035	-34.646726	23.456277	-0.000108	0.000327
	37.493000	3136.180937	-34.629481	23.451907	-0.000108	0.000331
	38.041000	3163.894658	-34.628689	23.452806	-0.000110	0.000334
	38.584000	3189.135205	-34.624464	23.455694	-0.000111	0.000338
	39.126000	3221.676125	-34.634273	23.452928	-0.000113	0.000342
	39.669000	3257.731980	-34.613798	23.453123	-0.000113	0.000345
	40.215000	3284.399111	-34.619959	23.453583	-0.000116	0.000348
	40.757000	3308.940858	-34.607142	23.457860	-0.000116	0.000352
	41.297000	3337.879897	-34.610488	23.451902	-0.000116	0.000357
	41.840000	3368.107047	-34.602456	23.456971	-0.000119	0.000360
	42.381000	3384.606148	-34.596347	23.456124	-0.000120	0.000363
	42.924000	3430.295469	-34.597136	23.459721	-0.000121	0.000366
	43.466000	3444.087925	-34.605902	23.456382	-0.000122	0.000369
	44.013000	3490.918836	-34.582390	23.455791	-0.000124	0.000374
	44.553000	3518.746880	-34.572475	23.457841	-0.000124	0.000378
	45.099000	3540.725286	-34.563928	23.455984	-0.000126	0.000382
	45.641000	3580.465143	-34.578120	23.452134	-0.000128	0.000385
	46.187000	3612.845052	-34.555897	23.453443	-0.000129	0.000389
	46.730000	3643.576179	-34.572539	23.454846	-0.000130	0.000392
	47.275000	3665.570688	-34.565822	23.452506	-0.000131	0.000397
	47.815000	3707.780501	-34.552548	23.455318	-0.000133	0.000400
	48.358000	3725.950928	-34.546165	23.455867	-0.000134	0.000404
	48.902000	3758.517614	-34.533558	23.453783	-0.000136	0.000407
	49.445000	3793.146890	-34.537744	23.453484	-0.000137	0.000413
	49.992000	3829.531219	-34.541148	23.450611	-0.000139	0.000416
	50.536000	3865.672417	-34.536272	23.451487	-0.000140	0.000421
	51.079000	3888.586317	-34.527030	23.450587	-0.000142	0.000424
	51.629000	3924.006173	-34.519124	23.451878	-0.000143	0.000429
	52.178000	3956.450491	-34.509531	23.455838	-0.000144	0.000432
	52.722000	3979.659047	-34.509740	23.452075	-0.000147	0.000437
	53.289000	4014.499254	-34.502704	23.453036	-0.000148	0.000442
	53.832000	4040.635045	-34.496859	23.445845	-0.000148	0.000444
	54.377000	4079.959492	-34.501181	23.452315	-0.000151	0.000450
	54.917000	4103.704225	-34.490921	23.458372	-0.000153	0.000454
	55.456000	4136.014903	-34.485916	23.451440	-0.000154	0.000458
	56.001000	4185.038835	-34.489108	23.452556	-0.000156	0.000462
	56.543000	4223.885072	-34.486931	23.450931	-0.000157	0.000466
	57.086000	4243.554542	-34.478387	23.453276	-0.000159	0.000470
	57.627000	4266.935386	-34.480822	23.451698	-0.000161	0.000474
	58.169000	4312.758360	-34.472655	23.450907	-0.000163	0.000479
	58.713000	4334.838211	-34.460630	23.452538	-0.000164	0.000483
	59.257000	4370.515695	-34.455397	23.454276	-0.000166	0.000488
	59.797000	4406.418598	-34.455587	23.452685	-0.000168	0.000492
	60.344000	4439.391047	-34.443508	23.454334	-0.000169	0.000497
	60.894000	4474.625744	-34.436993	23.450965	-0.000171	0.000502
	61.435000	4515.795417	-34.440413	23.451650	-0.000173	0.000507
	61.976000	4537.804423	-34.444052	23.449582	-0.000174	0.000512
	62.523000	4568.996058	-34.427828	23.452933	-0.000176	0.000516
	63.065000	4613.997866	-34.426785	23.452875	-0.000178	0.000520
	63.610000	4635.750861	-34.417166	23.451651	-0.000180	0.000525
	64.151000	4680.330813	-34.411411	23.449479	-0.000182	0.000530
	64.691000	4719.549000	-34.402678	23.451059	-0.000183	0.000535
	65.240000	4744.416006	-34.413540	23.453867	-0.000185	0.000540
	65.778000	4784.286300	-34.395818	23.449304	-0.000187	0.000546
	66.322000	4815.294383	-34.395660	23.452555	-0.000189	0.000551
	66.874000	4847.197703	-34.390205	23.452949	-0.000191	0.000557
	67.420000	4883.443573	-34.387317	23.452195	-0.000192	0.000561
	67.961000	4919.228943	-34.382873	23.454242	-0.000195	0.000567
	68.501000	4953.157821	-34.375830	23.452149	-0.000196	0.000572
	69.042000	4988.788619	-34.377363	23.452265	-0.000198	0.000578
	69.616000	5032.008008	-34.378258	23.455694	-0.000199	0.000582
	70.156000	5021.838362	-34.362916	23.453991	-0.000199	0.000580
	70.701000	5011.209824	-34.366571	23.456567	-0.000199	0.000582
	71.243000	5015.637711	-34.370078	23.455095	-0.000200	0.000582
	71.785000	5022.501739	-34.372316	23.456565	-0.000198	0.000575
	72.333000	4937.119213	-34.357252	23.455419	-0.000195	0.000568
	72.872000	4862.930385	-34.361342	23.456733	-0.000193	0.000560
	73.413000	4784.787054	-34.366719	23.455359	-0.000190	0.000553
	73.955000	4710.020189	-34.375160	23.456356	-0.000187	0.000545
	74.495000	4650.134244	-34.377524	23.456615	-0.000184	0.000539
	75.041000	4567.963958	-34.376274	23.455578	-0.000182	0.000531
	75.583000	4509.779933	-34.378429	23.455672	-0.000179	0.000525
	76.127000	4430.683410	-34.378235	23.450793	-0.000177	0.000519
	76.667000	4373.552419	-34.383507	23.456841	-0.000174	0.000511
	77.217000	4311.051612	-34.391242	23.454646	-0.000172	0.000504
	77.756000	4243.063450	-34.386776	23.455712	-0.000170	0.000498
	78.302000	4175.722565	-34.377727	23.450643	-0.000167	0.000490
	78.846000	4123.494455	-34.393467	23.452094	-0.000165	0.000483
	79.391000	4060.544425	-34.390985	23.450284	-0.000162	0.000477
	79.935000	3984.094982	-34.373047	23.451226	-0.000160	0.000469
	80.477000	3918.800591	-34.387020	23.452365	-0.000158	0.000461
	81.023000	3860.838778	-34.375308	23.449157	-0.000155	0.000454
	81.570000	3797.379948	-34.396424	23.455574	-0.000153	0.000447
	82.112000	3725.733559	-34.403560	23.448059	-0.000151	0.000441
	82.653000	3650.279191	-34.398527	23.455223	-0.000149	0.000434
	83.216000	3601.788223	-34.408349	23.448961	-0.000146	0.000427
	83.758000	3526.966643	-34.404342	23.451704	-0.000144	0.000421
	84.302000	3468.355950	-34.391587	23.449895	-0.000142	0.000414
	84.844000	3402.296751	-34.418103	23.450020	-0.000140	0.000407
	85.383000	3344.029020	-34.410951	23.451384	-0.000138	0.000400
	85.928000	3294.650870	-34.409485	23.451381	-0.000135	0.000392
	86.470000	3225.894691	-34.406829	23.451708	-0.000132	0.000385
	87.010000	3172.256113	-34.408851	23.450474	-0.000131	0.000379
	87.551000	3090.947289	-34.416589	23.448473	-0.000128	0.000373
	88.094000	3040.306792	-34.415349	23.447606	-0.000126	0.000366
	88.632000	2982.995488	-34.418177	23.444235	-0.000124	0.000359
	89.174000	2908.927465	-34.410690	23.447666	-0.000121	0.000352
	89.719000	2846.579647	-34.417713	23.449458	-0.000119	0.000344
	90.262000	2789.951045	-34.422106	23.451437	-0.000117	0.000337
	90.806000	2728.736767	-34.427564	23.449923	-0.000115	0.000331
	91.352000	2662.489194	-34.415610	23.446363	-0.000113	0.000324
	91.893000	2599.814521	-34.424888	23.449196	-0.000110	0.000317
	92.435000	2544.316240	-34.432089	23.445391	-0.000108	0.000310
	92.987000	2480.736670	-34.425204	23.450853	-0.000106	0.000303
	93.529000	2423.069532	-34.428846	23.444254	-0.000104	0.000295
	94.074000	2360.607401	-34.439473	23.449204	-0.000102	0.000289
	94.616000	2295.647944	-34.438188	23.451960	-9.858783E-5	0.000282
	95.159000	2227.366771	-34.446380	23.447491	-9.646426E-5	0.000275
	95.711000	2172.816865	-34.448293	23.446768	-9.478481E-5	0.000273
	96.254000	2175.707065	-34.445752	23.446167	-9.755031E-5	0.000280
	96.797000	2248.362986	-34.433174	23.442755	-9.994258E-5	0.000288
	97.343000	2321.938297	-34.441907	23.444715	-0.000102	0.000295
	97.882000	2392.716797	-34.424418	23.443584	-0.000104	0.000302
	98.427000	2454.241828	-34.428292	23.443486	-0.000108	0.000315
	98.971000	2605.441958	-34.432424	23.445148	-0.000114	0.000333
	99.512000	2780.472154	-34.417906	23.444882	-0.000119	0.000351
	100.058000	2949.965088	-34.423168	23.442439	-0.000125	0.000369
	100.599000	3118.422709	-34.424292	23.445127	-0.000131	0.000386
	101.142000	3289.387323	-34.402378	23.443352	-0.000137	0.000404
	101.686000	3446.287376	-34.409289	23.450553	-0.000143	0.000421
	102.232000	3606.483391	-34.405756	23.450046	-0.000149	0.000439
	102.773000	3765.423504	-34.393075	23.450965	-0.000155	0.000456
	103.328000	3930.525630	-34.394884	23.448566	-0.000161	0.000474
	103.870000	4091.244962	-34.393094	23.445599	-0.000167	0.000491
	104.411000	4243.560983	-34.385880	23.450600	-0.000172	0.000508
	104.954000	4404.396262	-34.382344	23.453772	-0.000178	0.000526
	105.497000	4555.809010	-34.376902	23.450634	-0.000184	0.000542
	106.039000	4678.005771	-34.366446	23.455519	-0.000189	0.000557
	106.585000	4824.829633	-34.356675	23.456005	-0.000194	0.000569
	107.125000	4918.782934	-34.366565	23.454239	-0.000197	0.000579
	107.668000	4997.027707	-34.357622	23.457805	-0.000200	0.000587
	108.211000	5059.303110	-34.347314	23.456640	-0.000202	0.000594
	108.751000	5110.351004	-34.347240	23.451836	-0.000205	0.000601
	109.295000	5154.341653	-34.340664	23.458858	-0.000207	0.000607
	109.835000	5201.621820	-34.337437	23.456002	-0.000210	0.000614
	110.378000	5251.737446	-34.329425	23.458879	-0.000212	0.000620
	110.922000	5291.359786	-34.329615	23.457142	-0.000215	0.000627
	111.466000	5331.899908	-34.332471	23.459016	-0.000217	0.000635
	112.013000	5377.877474	-34.312190	23.456300	-0.000220	0.000641
	112.552000	5421.567032	-34.310251	23.452456	-0.000223	0.000648
	113.098000	5463.792972	-34.309891	23.457412	-0.000225	0.000655
	113.646000	5498.984209	-34.312441	23.456285	-0.000228	0.000661
	114.190000	5532.998433	-34.304935	23.455358	-0.000229	0.000669
	114.734000	5567.817727	-34.290028	23.457829	-0.000232	0.000677
	115.281000	5618.240898	-34.289123	23.460921	-0.000235	0.000684
	115.818000	5653.490102	-34.286617	23.456892	-0.000238	0.000692
	116.360000	5693.729133	-34.279072	23.459258	-0.000240	0.000699
	116.907000	5735.692625	-34.292910	23.460583	-0.000244	0.000705
	117.449000	5780.377257	-34.271488	23.457388	-0.000246	0.000714
	117.992000	5811.517383	-34.267869	23.455636	-0.000249	0.000721
	118.534000	5841.219654	-34.262945	23.452434	-0.000252	0.000729
	119.078000	5873.789587	-34.270300	23.460866	-0.000255	0.000738
	119.623000	5915.585628	-34.260398	23.459718	-0.000259	0.000746
	120.165000	5951.324319	-34.251529	23.458710	-0.000262	0.000754
	120.707000	5982.039371	-34.257180	23.458614	-0.000265	0.000762
	121.254000	6028.754396	-34.245925	23.461995	-0.000269	0.000772
	121.793000	6069.410460	-34.233672	23.459947	-0.000272	0.000781
	122.337000	6104.815855	-34.237253	23.457564	-0.000276	0.000790
	122.890000	6136.865716	-34.224050	23.461861	-0.000280	0.000800
	123.431000	6173.280670	-34.226968	23.461383	-0.000284	0.000811
	123.984000	6210.313919	-34.224659	23.458277	-0.000289	0.000821
	124.529000	6252.929529	-34.216836	23.469006	-0.000293	0.000832
	125.075000	6282.614095	-34.218437	23.463755	-0.000298	0.000843
	125.618000	6315.374031	-34.197357	23.462029	-0.000303	0.000855
	126.161000	6351.787378	-34.213487	23.464908	-0.000307	0.000866
	126.704000	6381.085511	-34.196110	23.465106	-0.000312	0.000880
	127.248000	6424.575431	-34.197254	23.464922	-0.000318	0.000893
	127.795000	6458.869834	-34.181944	23.461617	-0.000324	0.000906
	128.340000	6487.887804	-34.164487	23.460800	-0.000329	0.000919
	128.890000	6514.640306	-34.174930	23.463262	-0.000335	0.000935
	129.431000	6553.386752	-34.188823	23.464510	-0.000341	0.000950
	129.978000	6584.958408	-34.184765	23.469062	-0.000348	0.000966
	130.529000	6613.396729	-34.173349	23.465597	-0.000355	0.000983
	131.073000	6653.828995	-34.150369	23.465631	-0.000363	0.000999
	131.615000	6671.261999	-34.159109	23.466689	-0.000371	0.001018
	132.157000	6703.844825	-34.151255	23.469468	-0.000379	0.001036
	132.702000	6728.526687	-34.150330	23.470741	-0.000387	0.001056
	133.244000	6759.922841	-34.135942	23.467112	-0.000396	0.001076
	133.786000	6788.345062	-34.136116	23.467003	-0.000405	0.001098
	134.327000	6815.331039	-34.128123	23.469315	-0.000416	0.001122
	134.871000	6844.803074	-34.130915	23.468286	-0.000427	0.001144
	135.415000	6867.174384	-34.130532	23.468424	-0.000439	0.001168
	135.955000	6888.122329	-34.128487	23.467465	-0.000449	0.001192
	136.488000	6904.966023	-34.124748	23.473860	-0.000462	0.001218
	137.031000	6951.302686	-34.105368	23.468635	-0.000476	0.001248
	137.574000	6971.757929	-34.106534	23.467437	-0.000489	0.001277
	138.119000	6978.378832	-34.110089	23.470793	-0.000504	0.001308
	138.665000	7009.069748	-34.088926	23.470386	-0.000518	0.001338
	139.205000	7030.225403	-34.101726	23.475194	-0.000532	0.001370
	139.750000	7047.874169	-34.088140	23.469007	-0.000549	0.001403
	140.301000	7066.204025	-34.090217	23.469980	-0.000566	0.001440
	140.844000	7088.694489	-34.071191	23.470313	-0.000584	0.001475
	141.387000	7108.446101	-34.071983	23.470059	-0.000602	0.001511
	141.930000	7120.921481	-34.060097	23.472474	-0.000620	0.001548
	142.473000	7143.650247	-34.069768	23.467218	-0.000639	0.001589
	143.033000	7158.645500	-34.060303	23.471938	-0.000699	0.001748
	143.573000	7400.947746	-34.035877	23.476351	-0.000836	0.002016
	144.117000	7468.570504	-34.015815	23.476762	-0.000981	0.002292
	144.667000	7534.063045	-33.996454	23.476805	-0.001129	0.002583
	145.213000	7602.228426	-33.965320	23.481810	-0.001248	0.002874
	145.755000	7657.190640	-33.948542	23.486988	-0.001384	0.003114
	146.302000	7706.997181	-33.904633	23.489732	-0.001539	0.003403
	146.846000	7770.380444	-33.893372	23.496131	-0.001700	0.003705
	147.405000	7829.392173	-33.874916	23.505362	-0.001851	0.003951
	147.947000	7871.803333	-33.849067	23.514037	-0.002005	0.004223
	148.489000	7925.862266	-33.832656	23.523333	-0.002163	0.004452
	149.031000	7966.858112	-33.805873	23.529585	-0.002323	0.004726
	149.572000	8016.729067	-33.797877	23.535544	-0.002476	0.004990
	150.122000	8050.355292	-33.764112	23.550186	-0.002631	0.005236
	150.661000	8105.103372	-33.752664	23.554804	-0.002786	0.005504
	151.204000	8148.870279	-33.717543	23.563537	-0.002938	0.005749
	151.745000	8194.440547	-33.700846	23.573433	-0.003090	0.005884
	152.290000	8234.922765	-33.658473	23.581082	-0.001675	0.002825
	152.838000	8281.383445	-33.655304	23.585447	-0.001651	0.002742
	153.385000	8320.851274	-33.625274	23.591562	-0.000628	0.001148
	153.928000	8366.609935	-33.595480	23.601154	-0.000607	0.001097
	154.506000	8420.029658	-33.582502	23.607205	-0.000583	0.001068
	155.050000	8448.587160	-33.558939	23.616227	-0.000548	0.001039
	155.590000	8482.738300	-33.533563	23.623631	-0.000537	0.001027
	156.135000	8534.807117	-33.507694	23.628204	-0.000528	0.000959
	156.676000	8559.687054	-33.490053	23.640405	-0.000380	0.000775
	157.243000	8606.160624	-33.464004	23.648279	-0.000263	0.000699
	157.780000	8644.731612	-33.446341	23.659177	-0.000250	0.000691
	158.322000	8683.648783	-33.428713	23.669160	-0.000149	0.000522
	158.867000	8729.219066	-33.393715	23.671925	-0.000143	0.000509
	159.409000	8755.802538	-33.367205	23.683895	-0.000146	0.000505
	159.951000	8798.489057	-33.350340	23.695578	-0.000149	0.000503
	160.496000	8836.845901	-33.334619	23.697811	-0.000151	0.000501
	161.038000	8872.182116	-33.294764	23.704930	-0.000152	0.000497
	161.578000	8907.004696	-33.287283	23.713145	-0.000153	0.000494
	162.122000	8941.009324	-33.258278	23.718077	-0.000151	0.000489
	162.672000	8973.326522	-33.240598	23.726772	-0.000151	0.000486
	163.219000	9005.212202	-33.219721	23.738732	-0.000151	0.000486
	163.760000	9040.598336	-33.193308	23.745825	-0.000152	0.000484
	164.305000	9079.724835	-33.167391	23.751839	-0.000152	0.000484
	164.843000	9102.363459	-33.147631	23.761764	-0.000153	0.000482
	165.385000	9143.293322	-33.123199	23.768474	-0.000153	0.000482
	165.929000	9172.142274	-33.096650	23.777016	-0.000153	0.000483
	166.469000	9212.201050	-33.085444	23.785662	-0.000124	0.000374
	167.018000	9247.548546	-33.060451	23.795290	-0.000115	0.000387
	167.559000	9275.642342	-33.039677	23.797146	-0.000119	0.000389
	168.103000	9298.714099	-33.026609	23.804949	-0.000119	0.000388
	168.646000	9337.455781	-32.980571	23.812100	-0.000118	0.000386
	169.189000	9362.551491	-32.973206	23.821719	-0.000117	0.000385
	169.729000	9398.060004	-32.942230	23.827311	-0.000116	0.000383
	170.271000	9428.456310	-32.914915	23.832552	-0.000105	0.000368
	170.815000	9464.750576	-32.904865	23.842266	-0.000106	0.000368
	171.361000	9484.389509	-32.875251	23.851076	-0.000105	0.000367
	171.905000	9520.073531	-32.846857	23.857035	-0.000104	0.000365
	172.449000	9547.014470	-32.830798	23.863522	-0.000103	0.000364
	172.999000	9576.214442	-32.816187	23.876017	-0.000101	0.000362
	173.545000	9607.045490	-32.776448	23.880460	-9.973732E-5	0.000362
	174.089000	9639.018133	-32.760456	23.886971	-9.864008E-5	0.000360
	174.632000	9666.912280	-32.731238	23.899490	-9.760753E-5	0.000360
	175.176000	9689.789216	-32.716560	23.903886	-9.596416E-5	0.000357
	175.716000	9720.048666	-32.700240	23.912209	-9.465916E-5	0.000357
	176.261000	9746.010640	-32.677437	23.922677	-9.390900E-5	0.000355
	176.805000	9772.882347	-32.638371	23.928701	-9.361914E-5	0.000355
	177.349000	9801.058272	-32.623171	23.936665	-9.218475E-5	0.000354
	177.892000	9822.199474	-32.620534	23.946169	-9.150301E-5	0.000352
	178.431000	9856.638864	-32.581017	23.955225	-9.126913E-5	0.000351
	178.973000	9875.521034	-32.558598	23.962561	-9.075036E-5	0.000351
	179.516000	9903.529506	-32.520347	23.969395	-8.946401E-5	0.000350
	180.055000	9923.662759	-32.520534	23.980233	-8.850235E-5	0.000350
	180.595000	9961.766841	-32.489544	23.988081	-8.731552E-5	0.000351
	181.139000	9974.686645	-32.469282	23.997111	-8.639989E-5	0.000471
	181.687000	9997.394522	-32.449735	24.000218	0.000221	0.000674
	182.232000	10035.714365	-32.421106	24.008903	0.000324	0.000713
	182.775000	10050.218554	-32.392932	24.019173	0.000387	0.000681
	183.324000	10085.868778	-32.386337	24.024013	0.000409	0.000695
	183.870000	10100.711097	-32.364071	24.028755	0.000425	0.000705
	184.413000	10130.836915	-32.332368	24.040571	0.000436	0.000711
	184.954000	10149.601548	-32.300757	24.045129	0.000444	0.000714
	185.498000	10163.651676	-32.281796	24.054383	0.000452	0.000720
	186.044000	10193.809698	-32.260735	24.063207	0.000460	0.000725
	186.584000	10229.558146	-32.241552	24.070716	0.000464	0.000725
	187.130000	10245.224861	-32.219132	24.076320	0.000467	0.000726
	187.674000	10270.433297	-32.201584	24.088081	0.000472	0.000729
	188.217000	10289.423353	-32.174720	24.089441	0.000472	0.000727
	188.755000	10313.507909	-32.152185	24.104086	0.000474	0.000726
	189.298000	10332.448051	-32.132257	24.112325	0.000476	0.000730
	189.843000	10350.691000	-32.109013	24.121624	0.000480	0.000732
	190.385000	10375.715883	-32.078056	24.129871	0.000484	0.000735
	190.929000	10398.275633	-32.060966	24.138482	0.000487	0.000738
	191.470000	10412.303222	-32.042015	24.145694	0.000488	0.000740
	192.009000	10442.693111	-32.028750	24.150805	0.000491	0.000742
	192.554000	10465.333370	-31.998354	24.156729	0.000493	0.000744
	193.098000	10487.485754	-31.965941	24.162659	0.000496	0.000745
	193.643000	10503.500263	-31.950838	24.172756	0.000513	0.000771
	194.188000	10525.681632	-31.926312	24.176647	0.000516	0.000777
	194.730000	10539.734984	-31.906217	24.185392	0.000516	0.000783
	195.271000	10560.877809	-31.885295	24.190375	0.000522	0.000787
	195.815000	10583.735440	-31.865464	24.201459	0.000527	0.000792
	196.357000	10596.814655	-31.839051	24.211895	0.000532	0.000797
	196.901000	10623.940782	-31.825027	24.218775	0.000536	0.000790
	197.440000	10647.907805	-31.795230	24.223310	0.000540	0.000795
	197.986000	10664.038247	-31.774549	24.235557	0.000543	0.000796
	198.525000	10678.110923	-31.749028	24.242601	0.000543	0.000797
	199.069000	10692.856640	-31.720367	24.244950	0.000544	0.000798
	199.625000	10710.679346	-31.707969	24.257080	0.000545	0.000798
	200.168000	10739.314183	-31.670285	24.266903	0.000548	0.000801
	200.714000	10759.518296	-31.651887	24.274671	0.000546	0.000803
	201.256000	10772.104808	-31.631577	24.284915	0.000546	0.000802
	201.798000	10790.653692	-31.596678	24.294945	0.000547	0.000804
	202.345000	10818.082532	-31.594614	24.301443	0.000548	0.000805
	202.887000	10823.025681	-31.552605	24.309045	0.000547	0.000805
	203.433000	10850.852227	-31.526092	24.319361	0.000548	0.000806
	203.977000	10873.938503	-31.521925	24.325709	0.000548	0.000807
	204.520000	10887.978979	-31.483884	24.337176	0.000547	0.000808
	205.065000	10904.167390	-31.446074	24.343905	0.000548	0.000809
	205.624000	10923.031863	-31.443971	24.355081	0.000548	0.000811
	206.169000	10941.658036	-31.425467	24.358007	0.000548	0.000814
	206.714000	10947.232363	-31.396513	24.366891	0.000549	0.000815
	207.273000	10977.791331	-31.376618	24.381095	0.000549	0.000818
	207.815000	10983.393030	-31.351648	24.386821	0.000550	0.000818
	208.375000	11008.648177	-31.325692	24.388737	0.000551	0.000819
	208.928000	11022.300609	-31.309803	24.401219	0.000552	0.000820
	209.470000	11039.480872	-31.284131	24.408380	0.000555	0.000823
	210.023000	11050.505545	-31.260459	24.411330	0.000555	0.000822
	210.566000	11084.861240	-31.249455	24.423615	0.000555	0.000822
	211.112000	11088.476020	-31.226346	24.428161	0.000555	0.000825
	211.655000	11116.761464	-31.176656	24.436231	0.000556	0.000824
	212.201000	11119.543797	-31.166954	24.446836	0.000558	0.000827
	212.749000	11138.427597	-31.152533	24.452082	0.000558	0.000828
	213.291000	11148.288135	-31.114134	24.464346	0.000559	0.000829
	213.844000	11168.194378	-31.098712	24.470480	0.000561	0.000830
	214.383000	11178.230422	-31.069549	24.482385	0.000561	0.000831
	214.927000	11203.714214	-31.061051	24.486903	0.000559	0.000827
	215.470000	11211.058093	-31.031491	24.495199	0.000555	0.000825
	216.014000	11226.615330	-31.003938	24.502229	0.000555	0.000827
	216.554000	11257.148543	-30.987727	24.511592	0.000557	0.000832
	217.096000	11270.672166	-30.968976	24.512521	0.000559	0.000835
	217.639000	11275.982431	-30.949122	24.523187	0.000558	0.000834
	218.185000	11292.351183	-30.924477	24.530286	0.000557	0.000835
	218.728000	11320.253417	-30.904431	24.533322	0.000557	0.000834
	219.271000	11320.821800	-30.879818	24.546246	0.000557	0.000837
	219.815000	11338.596211	-30.856635	24.548026	0.000558	0.000839
	220.357000	11349.302077	-30.824374	24.554428	0.000557	0.000839
	220.903000	11364.680592	-30.799410	24.564858	0.000557	0.000840
	221.445000	11378.957764	-30.789633	24.570721	0.000553	0.000836
	221.990000	11407.270588	-30.759369	24.579319	0.000554	0.000837
	222.532000	11409.924110	-30.740424	24.587185	0.000553	0.000836
	223.074000	11424.125607	-30.729877	24.588534	0.000554	0.000833
	223.616000	11439.249718	-30.696042	24.600601	0.000554	0.000836
	224.160000	11453.048678	-30.672131	24.610352	0.000555	0.000838
	224.703000	11470.721652	-30.655788	24.618526	0.000556	0.000839
	225.246000	11484.863575	-30.630927	24.622263	0.000557	0.000840
	225.787000	11496.986372	-30.597748	24.639358	0.000558	0.000841
	226.327000	11521.740775	-30.571590	24.638070	0.000554	0.000838
	226.874000	11518.485057	-30.562531	24.646208	0.000552	0.000835
	227.413000	11536.476841	-30.529294	24.654244	0.000552	0.000835
	227.957000	11554.415491	-30.517015	24.665277	0.000552	0.000837
	228.496000	11569.412402	-30.498701	24.670214	0.000553	0.000840
	229.047000	11577.601611	-30.465719	24.680302	0.000555	0.000842
	229.587000	11603.735911	-30.455965	24.686129	0.000555	0.000842
	230.132000	11607.856277	-30.429613	24.694040	0.000554	0.000841
	230.674000	11611.892917	-30.406246	24.703070	0.000548	0.000839
	231.213000	11637.650444	-30.377434	24.714284	0.000549	0.000839
	231.758000	11640.669470	-30.347798	24.723612	0.000544	0.000834
	232.307000	11657.472968	-30.347485	24.725884	0.000544	0.000836
	232.851000	11672.804790	-30.308017	24.735867	0.000545	0.000835
	233.392000	11676.715839	-30.287813	24.749164	0.000546	0.000836
	233.942000	11698.815111	-30.269808	24.756336	0.000544	0.000835
	234.480000	11700.663560	-30.245015	24.767597	0.000541	0.000832
	235.024000	11718.067644	-30.213781	24.772950	0.000542	0.000832
	235.564000	11739.321591	-30.188644	24.781297	0.000540	0.000832
	236.107000	11742.925101	-30.176774	24.792294	0.000539	0.000833
	236.661000	11752.170567	-30.160443	24.799305	0.000541	0.000833
	237.198000	11765.649112	-30.130891	24.806060	0.000542	0.000834
	237.743000	11778.316143	-30.116493	24.818465	0.000541	0.000834
	238.285000	11798.494512	-30.091729	24.822004	0.000539	0.000832
	238.824000	11808.232684	-30.064939	24.830858	0.000539	0.000833
	239.366000	11817.111038	-30.043015	24.840844	0.000541	0.000835
	239.919000	11825.292198	-30.014689	24.847127	0.000542	0.000836
	240.457000	11841.714093	-29.981829	24.861009	0.000538	0.000833
	241.004000	11853.693592	-29.961416	24.861168	0.000539	0.000833
	241.552000	11860.823325	-29.949848	24.869126	0.000538	0.000833
	242.098000	11867.455524	-29.928511	24.878613	0.000537	0.000831
	242.640000	11887.033309	-29.902803	24.881635	0.000536	0.000830
	243.184000	11894.832865	-29.887056	24.898738	0.000534	0.000829
	243.727000	11906.285845	-29.857941	24.900381	0.000534	0.000830
	244.273000	11917.846706	-29.852872	24.914101	0.000532	0.000830
	244.813000	11932.898367	-29.803176	24.919638	0.000534	0.000832
	245.358000	11946.827755	-29.794481	24.925599	0.000535	0.000835
	245.905000	11942.934418	-29.768655	24.936985	0.000537	0.000838
	246.449000	11961.918060	-29.745021	24.945184	0.000538	0.000838
	246.993000	11975.956939	-29.718167	24.945828	0.000539	0.000839
	247.535000	11988.966933	-29.683983	24.955524	0.000539	0.000839
	248.078000	11983.307264	-29.676876	24.965215	0.000538	0.000839
	248.618000	12004.429183	-29.651664	24.976444	0.000538	0.000840
	249.163000	12021.105485	-29.623016	24.984448	0.000536	0.000836
	249.705000	12026.615412	-29.619748	24.991061	0.000532	0.000832
	250.248000	12033.964126	-29.585960	24.997251	0.000531	0.000833
	250.793000	12046.489466	-29.563512	25.005202	0.000530	0.000832
	251.334000	12062.822808	-29.540425	25.010246	0.000530	0.000830
	251.878000	12065.019048	-29.515964	25.022749	0.000532	0.000832
	252.420000	12070.147370	-29.484810	25.031568	0.000534	0.000834
	252.963000	12085.055731	-29.478518	25.039600	0.000535	0.000838
	253.503000	12091.776488	-29.437150	25.044226	0.000538	0.000840
	254.047000	12103.295487	-29.423599	25.056405	0.000537	0.000839
	254.589000	12115.305581	-29.390765	25.064047	0.000537	0.000838
	255.130000	12128.650488	-29.385338	25.069834	0.000535	0.000837
	255.673000	12141.188711	-29.373964	25.081064	0.000533	0.000834
	256.215000	12144.911374	-29.345249	25.089846	0.000533	0.000839
	256.757000	12160.772942	-29.302074	25.096855	0.000535	0.000840
	257.302000	12153.965236	-29.296194	25.106033	0.000534	0.000839
	257.847000	12172.861934	-29.259502	25.115059	0.000535	0.000842
	258.386000	12184.859148	-29.239272	25.124261	0.000535	0.000840
	258.931000	12183.612893	-29.237037	25.132370	0.000531	0.000836
	259.473000	12194.204448	-29.203630	25.141878	0.000529	0.000834
	260.013000	12212.592339	-29.168332	25.147374	0.000529	0.000835
	260.554000	12221.644592	-29.150459	25.160099	0.000531	0.000835
	261.097000	12226.441224	-29.136554	25.170269	0.000529	0.000836
	261.639000	12237.741244	-29.102754	25.173301	0.000532	0.000837
	262.182000	12239.022922	-29.083470	25.185456	0.000530	0.000835
	262.742000	12262.479562	-29.064045	25.195245	0.000525	0.000831
	263.287000	12267.211788	-29.037546	25.205906	0.000522	0.000831
	263.832000	12270.213104	-29.010360	25.215573	0.000524	0.000833
	264.374000	12287.401437	-29.007906	25.220449	0.000523	0.000832
	264.915000	12294.012706	-28.975564	25.226332	0.000523	0.000833
	265.455000	12384.881429	-28.926107	25.236542	0.000523	0.000834
	265.997000	12396.108995	-28.887457	25.246385	0.000525	0.000836
	266.537000	12413.141145	-28.832219	25.249675	0.000527	0.000836
	267.081000	12432.425894	-28.808044	25.271648	0.000525	0.000835
	267.622000	12446.698250	-28.755379	25.270089	0.000528	0.000838
	268.162000	12460.189685	-28.704083	25.290519	0.000527	0.000836
	268.706000	12475.827447	-28.655373	25.305787	0.000526	0.000835
	269.247000	12491.782410	-28.616075	25.317536	0.000525	0.000836
	269.791000	12517.990799	-28.586835	25.335225	0.000523	0.000835
	270.335000	12528.701508	-28.534869	25.347667	0.000525	0.000837
	270.878000	12547.635247	-28.478804	25.360138	0.000523	0.000836
	271.423000	12562.646663	-28.434012	25.383938	0.000523	0.000837
	271.975000	12585.216118	-28.399835	25.395250	0.000524	0.000840
	272.517000	12590.006310	-28.338749	25.419604	0.000524	0.000840
	273.061000	12614.065153	-28.302634	25.431376	0.000526	0.000842
	273.608000	12622.264031	-28.249660	25.450822	0.000523	0.000840
	274.150000	12638.877547	-28.217170	25.467943	0.000523	0.000840
	274.694000	12657.099601	-28.172025	25.478923	0.000523	0.000840
	275.232000	12659.522875	-28.117486	25.502802	0.000522	0.000840
	275.775000	12683.993918	-28.067110	25.516718	0.000519	0.000837
	276.315000	12702.439784	-28.029700	25.533685	0.000518	0.000835
	276.858000	12712.796262	-27.979692	25.549816	0.000516	0.000837
	277.401000	12732.451350	-27.932331	25.569513	0.000515	0.000840
	277.949000	12746.614221	-27.892238	25.584626	0.000519	0.000842
	278.489000	12755.397584	-27.846884	25.604861	0.000524	0.000846
	279.035000	12774.695220	-27.811441	25.621994	0.000522	0.000844
	279.583000	12790.820863	-27.753827	25.637479	0.000526	0.000846
	280.123000	12805.803299	-27.708720	25.663367	0.000527	0.000848
	280.668000	12816.684688	-27.662953	25.674276	0.000527	0.000850
	281.207000	12819.267367	-27.616043	25.693059	0.000531	0.000852
	281.748000	12846.015164	-27.571123	25.711309	0.000528	0.000852
	282.291000	12848.667081	-27.531445	25.725755	0.000525	0.000850
	282.835000	12865.993896	-27.483308	25.744401	0.000524	0.000846
	283.372000	12872.835420	-27.445898	25.761749	0.000521	0.000846
	283.911000	12892.532376	-27.386986	25.783113	0.000521	0.000847
	284.455000	12898.486707	-27.353347	25.796440	0.000519	0.000844
	284.999000	12911.830014	-27.297252	25.814594	0.000521	0.000849
	285.539000	12921.825821	-27.254454	25.829720	0.000524	0.000849
	286.082000	12935.336584	-27.214545	25.848813	0.000525	0.000853
	286.624000	12947.291943	-27.170836	25.869367	0.000524	0.000850
	287.178000	12956.122001	-27.116960	25.878529	0.000524	0.000851
	287.722000	12973.984999	-27.084371	25.902286	0.000524	0.000852
	288.264000	12977.094197	-27.046381	25.918953	0.000519	0.000849
	288.811000	12992.184517	-26.982333	25.941556	0.000515	0.000847
	289.352000	13009.918703	-26.937545	25.956083	0.000516	0.000848
	289.895000	13019.969256	-26.900006	25.976958	0.000517	0.000851
	290.438000	13022.730662	-26.843811	25.987133	0.000519	0.000853
	290.977000	13040.690269	-26.810797	26.014415	0.000518	0.000853
	291.519000	13049.452702	-26.763223	26.032780	0.000516	0.000852
	292.061000	13058.930042	-26.713760	26.044806	0.000517	0.000854
	292.603000	13063.800745	-26.675242	26.064083	0.000517	0.000854
	293.145000	13078.635053	-26.609409	26.082748	0.000516	0.000854
	293.686000	13085.206073	-26.574494	26.102500	0.000516	0.000852
	294.226000	13090.403635	-26.528576	26.120586	0.000517	0.000854
	294.769000	13106.213694	-26.481170	26.136115	0.000515	0.000853
	295.311000	13118.666591	-26.452616	26.154725	0.000517	0.000856
	295.858000	13126.330904	-26.400460	26.174469	0.000521	0.000859
	296.400000	13137.329835	-26.359182	26.191527	0.000524	0.000861
	296.940000	13141.052502	-26.302711	26.210859	0.000528	0.000862
	297.479000	13157.308573	-26.263108	26.224137	0.000528	0.000865
	298.024000	13161.329116	-26.231887	26.241042	0.000527	0.000865
	298.563000	13168.454028	-26.173116	26.258580	0.000525	0.000860
	299.103000	13181.375479	-26.140050	26.280751	0.000519	0.000858
	299.645000	13195.899030	-26.087875	26.298632	0.000517	0.000859
	300.194000	13204.796718	-26.025533	26.320192	0.000515	0.000857
	300.737000	13206.675763	-25.990632	26.334998	0.000514	0.000856
	301.281000	13210.477326	-25.949148	26.357536	0.000514	0.000856
	301.842000	13227.247035	-25.906659	26.378703	0.000513	0.000855
	302.386000	13224.535543	-25.848710	26.389047	0.000509	0.000852
	302.929000	13238.708082	-25.816665	26.407619	0.000507	0.000852
	303.471000	13245.955366	-25.759759	26.425247	0.000510	0.000855
	304.015000	13253.387818	-25.712694	26.443394	0.000510	0.000854
	304.573000	13251.951565	-25.675042	26.466012	0.000509	0.000855
	305.113000	13273.527572	-25.632396	26.485196	0.000511	0.000853
	305.656000	13276.994225	-25.570972	26.505621	0.000513	0.000856
	306.200000	13279.320891	-25.539561	26.522558	0.000512	0.000854
	306.742000	13299.293190	-25.479393	26.538654	0.000512	0.000855
	307.285000	13304.437620	-25.439738	26.557224	0.000514	0.000859
	307.824000	13306.757846	-25.407774	26.580725	0.000513	0.000861
	308.369000	13307.121739	-25.356033	26.602246	0.000510	0.000859
	308.913000	13322.949513	-25.304425	26.614783	0.000514	0.000861
	309.451000	13329.684770	-25.276208	26.633303	0.000513	0.000861
	309.993000	13334.051497	-25.226957	26.653907	0.000514	0.000863
	310.548000	13342.561140	-25.171803	26.674597	0.000514	0.000862
	311.091000	13344.855604	-25.119699	26.691061	0.000513	0.000860
	311.637000	13353.088300	-25.075349	26.707343	0.000511	0.000862
	312.184000	13356.585547	-25.034506	26.723065	0.000510	0.000864
	312.725000	13368.925736	-25.007198	26.745511	0.000514	0.000867
	313.270000	13376.334036	-24.940138	26.764865	0.000516	0.000867
	313.812000	13369.957842	-24.905530	26.783347	0.000515	0.000866
	314.356000	13383.256071	-24.864043	26.800735	0.000513	0.000866
	314.902000	13393.763911	-24.807047	26.820283	0.000516	0.000869
	315.441000	13402.690583	-24.773601	26.837837	0.000519	0.000875
	315.987000	13406.765872	-24.718231	26.857739	0.000521	0.000876
	316.533000	13410.589979	-24.671546	26.874994	0.000522	0.000878
	317.076000	13413.987396	-24.631019	26.896063	0.000523	0.000880
	317.619000	13416.906598	-24.581838	26.916934	0.000524	0.000880
	318.162000	13430.501095	-24.542045	26.936591	0.000527	0.000883
	318.704000	13431.341593	-24.479178	26.962169	0.000527	0.000884
	319.246000	13420.510114	-24.437823	26.980472	0.000527	0.000884
	319.793000	13440.500128	-24.395084	27.003733	0.000529	0.000887
	320.332000	13446.876322	-24.354054	27.026324	0.000529	0.000886
	320.876000	13458.899313	-24.306065	27.042606	0.000527	0.000888
	321.419000	13460.839544	-24.261216	27.065952	0.000524	0.000885
	321.962000	13452.054565	-24.209607	27.090206	0.000521	0.000882
	322.510000	13474.300400	-24.179205	27.105490	0.000519	0.000881
	323.056000	13476.936215	-24.126846	27.126759	0.000519	0.000884
	323.600000	13463.076044	-24.079092	27.150530	0.000521	0.000883
	324.143000	13479.456100	-24.035995	27.170055	0.000516	0.000881
	324.687000	13498.252995	-23.987980	27.185300	0.000514	0.000878
	325.233000	13495.010152	-23.952647	27.204648	0.000510	0.000879
	325.775000	13502.566586	-23.901924	27.223492	0.000511	0.000879
	326.316000	13506.746537	-23.860228	27.245515	0.000511	0.000881
	326.860000	13511.554445	-23.802469	27.260417	0.000512	0.000882
	327.402000	13509.348540	-23.763229	27.281504	0.000510	0.000880
	327.947000	13516.151425	-23.727851	27.305029	0.000509	0.000880
	328.489000	13522.216861	-23.675634	27.325776	0.000508	0.000881
	329.032000	13522.865752	-23.629838	27.347402	0.000507	0.000882
	329.570000	13532.040388	-23.588879	27.368517	0.000508	0.000883
	330.122000	13541.155448	-23.538598	27.388011	0.000507	0.000884
	330.664000	13547.132326	-23.480095	27.412071	0.000508	0.000886
	331.208000	13549.851870	-23.444214	27.434753	0.000511	0.000891
	331.751000	13553.970635	-23.414980	27.452131	0.000510	0.000890
	332.299000	13554.147752	-23.352072	27.470770	0.000507	0.000889
	332.841000	13558.593376	-23.321150	27.494176	0.000506	0.000891
	333.385000	13567.262426	-23.260483	27.513994	0.000508	0.000892
	333.932000	13563.557470	-23.214839	27.539446	0.000509	0.000889
	334.475000	13567.606999	-23.167468	27.557445	0.000506	0.000890
	335.016000	13577.300103	-23.125782	27.577591	0.000507	0.000892
	335.558000	13583.660198	-23.080169	27.599585	0.000511	0.000898
	336.103000	13581.739288	-23.033746	27.618861	0.000511	0.000899
	336.647000	13581.399546	-22.985931	27.637547	0.000513	0.000903
	337.188000	13582.729531	-22.952965	27.658709	0.000515	0.000905
	337.731000	13584.454001	-22.911291	27.680880	0.000519	0.000910
	338.274000	13599.653820	-22.868045	27.699247	0.000522	0.000915
	338.820000	13594.773455	-22.813906	27.721906	0.000526	0.000920
	339.363000	13601.441088	-22.765353	27.743090	0.000527	0.000921
	339.909000	13598.370532	-22.714566	27.764545	0.000525	0.000918
	340.449000	13604.852998	-22.667969	27.782090	0.000518	0.000909
	340.994000	13611.436902	-22.626188	27.805220	0.000517	0.000909
	341.536000	13607.100767	-22.575044	27.831363	0.000515	0.000909
	342.076000	13608.205330	-22.528053	27.846272	0.000513	0.000909
	342.623000	13609.557857	-22.504893	27.870331	0.000514	0.000909
	343.161000	13617.326832	-22.456282	27.888583	0.000512	0.000907
	343.702000	13612.399772	-22.412866	27.914341	0.000513	0.000909
	344.241000	13623.471166	-22.359777	27.936014	0.000516	0.000912
	344.786000	13624.203785	-22.309811	27.961349	0.000509	0.000908
	345.324000	13632.381739	-22.267087	27.982331	0.000511	0.000910
	345.869000	13635.354076	-22.218702	28.002478	0.000512	0.000913
	346.421000	13628.367634	-22.182471	28.027987	0.000511	0.000911
	346.964000	13638.864205	-22.137628	28.047494	0.000509	0.000910
	347.511000	13638.653275	-22.086802	28.069037	0.000510	0.000912
	348.058000	13642.351790	-22.036810	28.093085	0.000506	0.000909
	348.601000	13643.928128	-21.991649	28.117684	0.000506	0.000911
	349.145000	13657.794744	-21.964444	28.138384	0.000509	0.000914
	349.685000	13641.124856	-21.911753	28.163606	0.000511	0.000917
	350.224000	13659.253541	-21.861929	28.184973	0.000510	0.000916
	350.768000	13649.732720	-21.816352	28.205684	0.000510	0.000916
	351.313000	13654.072076	-21.764245	28.229299	0.000508	0.000916
	351.857000	13651.020841	-21.722919	28.247885	0.000508	0.000918
	352.399000	13665.436518	-21.674756	28.275253	0.000507	0.000918
	352.940000	13663.274087	-21.625376	28.295666	0.000507	0.000918
	353.481000	13678.386959	-21.588752	28.318118	0.000503	0.000914
	354.027000	13666.979043	-21.541726	28.338209	0.000505	0.000909
	354.568000	13671.756359	-21.501250	28.360447	0.000504	0.000910
	355.111000	13671.026961	-21.459128	28.382416	0.000503	0.000911
	355.656000	13674.706155	-21.403424	28.398608	0.000503	0.000913
	356.198000	13674.662681	-21.351394	28.428977	0.000504	0.000913
	356.745000	13683.098259	-21.312006	28.447774	0.000502	0.000915
	357.290000	13678.892546	-21.269624	28.474582	0.000500	0.000914
	357.835000	13676.871808	-21.227342	28.495329	0.000500	0.000913
	358.377000	13676.625455	-21.170867	28.517107	0.000502	0.000918
	358.920000	13681.082352	-21.142812	28.540407	0.000507	0.000922
	359.460000	13679.927874	-21.096997	28.564162	0.000507	0.000925
	360.005000	13677.493326	-21.052357	28.590110	0.000503	0.000923
	360.551000	13694.486855	-21.005318	28.609941	0.000502	0.000922
	361.093000	13685.875769	-20.957697	28.634211	0.000499	0.000918
	361.642000	13699.708573	-20.900015	28.655949	0.000494	0.000916
	362.183000	13685.441030	-20.861198	28.681409	0.000495	0.000918
	362.729000	13689.033275	-20.816461	28.700695	0.000493	0.000916
	363.276000	13700.747120	-20.771587	28.723556	0.000495	0.000917
	363.820000	13704.764446	-20.718336	28.751126	0.000494	0.000920
	364.361000	13701.763125	-20.678520	28.770186	0.000499	0.000926
	364.910000	13701.862954	-20.618652	28.795298	0.000500	0.000928
	365.455000	13693.485342	-20.590722	28.816495	0.000502	0.000933
	366.001000	13706.184599	-20.532226	28.844258	0.000503	0.000934
	366.543000	13709.108631	-20.502615	28.862596	0.000503	0.000933
	367.080000	13701.766346	-20.461885	28.887440	0.000504	0.000934
	367.621000	13706.587136	-20.420440	28.904881	0.000505	0.000935
	368.158000	13710.317855	-20.361157	28.933229	0.000502	0.000933
	368.701000	13695.161509	-20.311900	28.954812	0.000505	0.000936
	369.248000	13705.988160	-20.271169	28.978734	0.000505	0.000936
	369.792000	13708.475843	-20.217970	29.009550	0.000507	0.000938
	370.331000	13713.913321	-20.190958	29.028157	0.000510	0.000941
	370.876000	13705.083255	-20.128324	29.054259	0.000509	0.000942
	371.418000	13710.288872	-20.087494	29.078318	0.000506	0.000940
	371.962000	13712.671895	-20.046712	29.106981	0.000505	0.000939
	372.504000	13714.583144	-20.008703	29.124970	0.000504	0.000940
	373.053000	13712.948841	-19.966018	29.153975	0.000505	0.000942
	373.595000	13711.023101	-19.907412	29.180274	0.000508	0.000946
	374.137000	13711.787922	-19.859314	29.205871	0.000510	0.000950
	374.681000	13716.194904	-19.807287	29.228159	0.000511	0.000951
	375.225000	13712.399779	-19.768340	29.252427	0.000513	0.000957
	375.770000	13711.929616	-19.724016	29.275610	0.000514	0.000955
	376.307000	13714.246623	-19.680497	29.303355	0.000515	0.000957
	376.848000	13710.493361	-19.638022	29.324277	0.000513	0.000956
	377.404000	13703.178448	-19.579461	29.354186	0.000511	0.000955
	377.944000	13713.571970	-19.552072	29.373473	0.000510	0.000955
	378.485000	13708.583723	-19.492490	29.399600	0.000507	0.000952
	379.033000	13692.791367	-19.457531	29.425672	0.000510	0.000953
	379.575000	13709.965232	-19.413944	29.450875	0.000509	0.000953
	380.131000	13708.504826	-19.348940	29.471257	0.000510	0.000956
	380.676000	13713.576800	-19.322430	29.500280	0.000510	0.000956
	381.217000	13704.646904	-19.256353	29.522074	0.000508	0.000956
	381.760000	13702.210747	-19.217117	29.549203	0.000505	0.000955
	382.299000	13704.442416	-19.192308	29.575921	0.000503	0.000952
	382.844000	13690.530716	-19.132884	29.599578	0.000505	0.000957
	383.387000	13704.920630	-19.090489	29.623568	0.000501	0.000954
	383.929000	13692.731791	-19.052483	29.654337	0.000503	0.000955
	384.469000	13710.617344	-19.018435	29.678968	0.000503	0.000955
	385.017000	13705.023680	-18.958631	29.704152	0.000499	0.000953
	385.562000	13713.832814	-18.908539	29.733638	0.000500	0.000954
	386.102000	13712.388509	-18.870443	29.760368	0.000499	0.000952
	386.658000	13696.853776	-18.829555	29.784037	0.000500	0.000955
	387.199000	13716.892100	-18.776730	29.815165	0.000503	0.000958
	387.744000	13704.453687	-18.724960	29.841096	0.000507	0.000963
	388.295000	13695.506081	-18.667475	29.872531	0.000508	0.000966
	388.838000	13705.870619	-18.644160	29.899240	0.000511	0.000969
	389.383000	13707.424414	-18.599768	29.919889	0.000513	0.000971
	389.927000	13705.063934	-18.550939	29.950396	0.000514	0.000971
	390.471000	13701.329995	-18.499369	29.977592	0.000514	0.000969
	391.015000	13713.238668	-18.452788	29.998518	0.000508	0.000962
	391.559000	13704.208944	-18.405382	30.027596	0.000505	0.000961
	392.102000	13698.273929	-18.356678	30.057601	0.000505	0.000962
	392.649000	13698.909938	-18.325635	30.083642	0.000507	0.000963
	393.191000	13703.371665	-18.276693	30.110159	0.000507	0.000966
	393.734000	13697.195128	-18.225848	30.136230	0.000509	0.000969
	394.273000	13696.377171	-18.200990	30.163048	0.000511	0.000969
	394.815000	13699.652217	-18.140906	30.192274	0.000512	0.000972
	395.360000	13698.124185	-18.086135	30.216521	0.000512	0.000972
	395.908000	13697.584785	-18.035519	30.242227	0.000510	0.000971
	396.448000	13692.561114	-18.003947	30.272898	0.000508	0.000967
	396.992000	13694.473973	-17.956570	30.300249	0.000507	0.000967
	397.542000	13695.623621	-17.916523	30.330051	0.000506	0.000968
	398.084000	13685.165693	-17.873638	30.358923	0.000507	0.000970
	398.627000	13687.606681	-17.821022	30.385556	0.000502	0.000966
	399.172000	13681.356077	-17.765842	30.412820	0.000500	0.000966
	399.714000	13692.928229	-17.726413	30.442996	0.000500	0.000966
	400.257000	13687.159059	-17.679803	30.473009	0.000502	0.000967
	400.805000	13688.336079	-17.642496	30.501968	0.000501	0.000967
	401.344000	13686.680845	-17.590784	30.527253	0.000499	0.000965
	401.888000	13680.330411	-17.556012	30.557422	0.000495	0.000964
	402.444000	13682.000137	-17.512441	30.589808	0.000495	0.000961
	402.985000	13679.475420	-17.461107	30.618442	0.000494	0.000962
	403.529000	13681.686158	-17.410471	30.647158	0.000496	0.000966
	404.070000	13677.069856	-17.375325	30.675005	0.000497	0.000963
	404.615000	13681.518702	-17.317218	30.707829	0.000493	0.000959
	405.159000	13671.959238	-17.286261	30.734115	0.000493	0.000962
	405.703000	13665.217537	-17.238675	30.763416	0.000497	0.000966
	406.245000	13668.035302	-17.199883	30.790511	0.000503	0.000972
	406.791000	13669.701807	-17.144575	30.820522	0.000501	0.000970
	407.332000	13665.866429	-17.094371	30.850560	0.000500	0.000966
	407.873000	13660.949029	-17.052668	30.882316	0.000496	0.000966
	408.415000	13658.609480	-17.006460	30.907384	0.000499	0.000967
	408.961000	13663.865011	-16.948997	30.940026	0.000500	0.000970
	409.505000	13645.277435	-16.912363	30.967499	0.000500	0.000969
	410.048000	13653.339458	-16.872519	30.999556	0.000502	0.000970
	410.591000	13649.652213	-16.827857	31.034556	0.000501	0.000968
	411.130000	13650.228647	-16.778609	31.060353	0.000497	0.000966
	411.673000	13634.099770	-16.740603	31.092911	0.000495	0.000964
	412.220000	13637.930318	-16.697953	31.123542	0.000498	0.000961
	412.765000	13638.469717	-16.625239	31.153016	0.000503	0.000965
	413.310000	13642.026540	-16.601828	31.184521	0.000503	0.000965
	413.853000	13630.678200	-16.542607	31.215389	0.000507	0.000970
	414.394000	13637.572864	-16.502865	31.241676	0.000511	0.000975
	414.939000	13636.476351	-16.461781	31.276736	0.000513	0.000976
	415.482000	13626.440284	-16.415766	31.307813	0.000509	0.000973
	416.026000	13627.077904	-16.363250	31.339086	0.000510	0.000957
	416.567000	13626.797737	-16.320929	31.373287	0.000507	0.000953
	417.111000	13621.535766	-16.277007	31.403559	0.000508	0.000953
	417.652000	13606.955853	-16.225267	31.434589	0.000508	0.000955
	418.194000	13618.798509	-16.193566	31.468448	0.000509	0.000955
	418.742000	13615.715072	-16.148350	31.500882	0.000509	0.000953
	419.286000	13603.455387	-16.093947	31.535246	0.000504	0.000952
	419.830000	13587.600236	-16.053487	31.564482	0.000505	0.000953
	420.368000	13604.205716	-16.011640	31.598763	0.000503	0.000954
	420.911000	13606.129847	-15.953900	31.630576	0.000503	0.000955
	421.453000	13602.350823	-15.919066	31.667029	0.000504	0.000958
	422.007000	13592.419415	-15.869351	31.697432	0.000505	0.000956
	422.547000	13581.302938	-15.814165	31.732315	0.000505	0.000958
	423.087000	13576.887906	-15.774073	31.765131	0.000506	0.000959
	423.630000	13585.610089	-15.721212	31.800053	0.000508	0.000962
	424.172000	13575.406566	-15.685789	31.829995	0.000506	0.000960
	424.717000	13571.176701	-15.646424	31.868485	0.000502	0.000959
	425.269000	13574.070142	-15.582830	31.903265	0.000503	0.000961
	425.811000	13571.088143	-15.551007	31.935109	0.000505	0.000965
	426.355000	13563.143662	-15.503710	31.975645	0.000504	0.000964
	426.912000	13565.560497	-15.462178	32.011326	0.000502	0.000962
	427.457000	13556.313404	-15.412261	32.048514	0.000504	0.000963
	428.000000	13550.578049	-15.379552	32.086811	0.000504	0.000963
	428.544000	13542.184335	-15.321056	32.119672	0.000505	0.000966
	429.089000	13543.710758	-15.279540	32.158046	0.000502	0.000963
	429.646000	13536.822534	-15.235032	32.194797	0.000499	0.000957
	430.184000	13523.100834	-15.190937	32.231090	0.000496	0.000955
	430.729000	13529.502790	-15.138974	32.269984	0.000496	0.000958
	431.267000	13524.580561	-15.103290	32.308742	0.000498	0.000958
	431.807000	13517.529713	-15.043042	32.342836	0.000499	0.000960
	432.345000	13512.985870	-15.000502	32.384631	0.000496	0.000961
	432.886000	13510.171327	-14.960030	32.418231	0.000494	0.000956
	433.429000	13505.946292	-14.907922	32.455509	0.000489	0.000950
	433.970000	13490.575798	-14.871591	32.492315	0.000486	0.000947
	434.512000	13490.554866	-14.816498	32.527111	0.000486	0.000949
	435.051000	13489.575895	-14.785258	32.571389	0.000485	0.000952
	435.597000	13482.898602	-14.743559	32.605292	0.000480	0.000948
	436.140000	13477.255025	-14.693293	32.652852	0.000477	0.000946
	436.686000	13466.178802	-14.636304	32.688372	0.000478	0.000947
	437.226000	13470.047992	-14.600298	32.727403	0.000477	0.000935
	437.767000	13463.246719	-14.550252	32.768389	0.000477	0.000932
	438.310000	13451.368640	-14.508427	32.805120	0.000471	0.000933
	438.853000	13450.389670	-14.468466	32.849236	0.000468	0.000933
	439.395000	13434.935448	-14.425594	32.891902	0.000471	0.000937
	439.936000	13422.286109	-14.367739	32.935595	0.000474	0.000941
	440.481000	13462.784605	-14.315242	32.973911	0.000472	0.000941
	441.023000	13456.670866	-14.256327	33.015899	0.000477	0.000946
	441.565000	13442.920183	-14.188855	33.065065	0.000480	0.000950
	442.108000	13427.899093	-14.116463	33.111455	0.000479	0.000946
	442.665000	13430.744227	-14.069660	33.162751	0.000478	0.000946
	443.211000	13419.915968	-13.983974	33.212483	0.000480	0.000946
	443.756000	13398.874528	-13.926019	33.276183	0.000482	0.000949
	444.298000	13386.287984	-13.871361	33.322742	0.000482	0.000947
	444.841000	13385.795278	-13.805149	33.382405	0.000484	0.000943
	445.404000	13362.997164	-13.736589	33.448866	0.000490	0.000948
	445.943000	13354.450487	-13.671530	33.498478	0.000490	0.000948
	446.485000	13329.842565	-13.607980	33.563154	0.000487	0.000947
	447.026000	13328.253347	-13.538377	33.626250	0.000489	0.000949
	447.571000	13298.314220	-13.490543	33.685760	0.000491	0.000953
	448.118000	13290.965495	-13.425368	33.752529	0.000493	0.000955
	448.659000	13276.047457	-13.354010	33.811598	0.000495	0.000953
	449.202000	13250.747172	-13.286190	33.874449	0.000492	0.000950
	449.753000	13231.325546	-13.243689	33.936610	0.000494	0.000954
	450.293000	13211.747734	-13.172688	33.998828	0.000493	0.000951
	450.838000	13202.816233	-13.115741	34.064039	0.000490	0.000948
	451.380000	13166.346343	-13.048150	34.123562	0.000491	0.000950
	451.919000	13142.216640	-12.975246	34.188898	0.000492	0.000950
	452.464000	13120.447417	-12.916309	34.252583	0.000489	0.000953
	453.010000	13105.337774	-12.846132	34.320491	0.000491	0.000952
	453.553000	13074.261886	-12.787153	34.387245	0.000490	0.000946
	454.099000	13052.062755	-12.722039	34.447461	0.000486	0.000935
	454.639000	13024.131492	-12.663475	34.512480	0.000479	0.000936
	455.182000	13001.710160	-12.597230	34.578597	0.000487	0.000943
	455.734000	12969.640816	-12.518655	34.642297	0.000491	0.000943
	456.280000	12938.474765	-12.470229	34.707916	0.000490	0.000945
	456.826000	12913.219574	-12.408905	34.775131	0.000489	0.000946
	457.371000	12888.173701	-12.329167	34.839110	0.000494	0.000950
	457.911000	12843.282742	-12.272181	34.902316	0.000497	0.000954
	458.455000	12807.128454	-12.221098	34.966029	0.000498	0.000956
	458.998000	12772.283218	-12.147070	35.027877	0.000499	0.000955
	459.540000	12737.837299	-12.082986	35.092708	0.000500	0.000954
	460.083000	12694.764204	-12.018842	35.160306	0.000501	0.000956
	460.626000	12665.032806	-11.945748	35.227312	0.000505	0.000959
	461.165000	12617.039098	-11.908077	35.287434	0.000501	0.000960
	461.709000	12580.110336	-11.837871	35.352770	0.000503	0.000961
	462.249000	12540.065938	-11.770091	35.418899	0.000505	0.000963
	462.791000	12476.395830	-11.708719	35.481741	0.000506	0.000950
	463.348000	12449.308300	-11.635190	35.547325	0.000505	0.000952
	463.889000	12395.899675	-11.568530	35.604170	0.000509	0.000956
	464.436000	12351.388732	-11.517225	35.672455	0.000510	0.000957
	464.979000	12285.271211	-11.447715	35.734733	0.000508	0.000956
	465.525000	12231.889967	-11.381712	35.801016	0.000500	0.000951
	466.069000	12178.833974	-11.319532	35.859593	0.000503	0.000954
	466.612000	12131.043169	-11.254675	35.918786	0.000504	0.000958
	467.156000	12073.271057	-11.187268	35.983201	0.000508	0.000961
	467.700000	11999.993227	-11.124924	36.051385	0.000509	0.000961
	468.244000	11938.266601	-11.074919	36.114262	0.000507	0.000959
	468.785000	11878.137243	-11.009125	36.182072	0.000499	0.000952
	469.327000	11810.300114	-10.952201	36.244505	0.000499	0.000954
	469.871000	11736.041721	-10.871574	36.312150	0.000501	0.000953
	470.416000	11659.282773	-10.823521	36.378161	0.000500	0.000954
	470.987000	11578.405074	-10.760587	36.445179	0.000497	0.000952
	471.531000	11500.568950	-10.694935	36.510578	0.000501	0.000957
	472.076000	11412.745088	-10.618441	36.573217	0.000502	0.000958
	472.617000	11290.394855	-10.548744	36.640664	0.000503	0.000959
	473.159000	11226.679737	-10.501252	36.708294	0.000509	0.000967
	473.704000	11105.524253	-10.421801	36.770648	0.000512	0.000971
	474.249000	11015.518672	-10.369652	36.836286	0.000513	0.000973
	474.791000	10897.604434	-10.311455	36.902669	0.000512	0.000970
	475.335000	10782.472540	-10.241549	36.968235	0.000511	0.000970
	475.878000	10662.991651	-10.181842	37.033630	0.000509	0.000968
	476.421000	10515.521612	-10.115365	37.101196	0.000503	0.000962
	476.964000	10380.789452	-10.047221	37.164146	0.000502	0.000962
	477.506000	10235.187214	-9.995004	37.234391	0.000506	0.000965
	478.047000	10064.420034	-9.919067	37.300252	0.000502	0.000963
	478.590000	9878.306585	-9.865697	37.371389	0.000504	0.000966
	479.131000	9691.233516	-9.794210	37.434713	0.000508	0.000970
	479.673000	9480.489739	-9.735965	37.504357	0.000509	0.000970
	480.216000	9244.057753	-9.676425	37.571268	0.000506	0.000971
	480.771000	8971.122235	-9.608310	37.638427	0.000506	0.000970
	481.312000	8642.586902	-9.548203	37.702345	0.000506	0.000964
	481.856000	6479.368548	-9.483331	37.782874	0.000503	0.000964
	482.398000	5226.831792	-9.418181	37.860813	0.000500	0.000963
	482.939000	4486.965858	-9.364048	37.941519	0.000502	0.000969
	483.482000	3919.919639	-9.284952	38.018530	0.000501	0.000960
	484.025000	3388.597684	-9.218540	38.106862	0.000498	0.000956
	484.568000	2897.262005	-9.156868	38.189763	0.000491	0.000957
	485.112000	2495.591815	-9.111031	38.272503	0.000488	0.000957
	485.654000	2038.168978	-9.038861	38.361739	0.000483	0.000962
	486.193000	1639.558112	-8.979125	38.443408	0.000482	0.000961
	486.747000	1256.452905	-8.900907	38.527854	0.000475	0.000955
	487.288000	851.374147	-8.841496	38.614851	0.000470	0.000952
	487.831000	441.587352	-8.784797	38.687495	0.000463	0.000947
	488.377000	51.244601	-8.707958	38.785103	0.000458	0.000938
	488.914000	9.833439	-8.662539	38.899505	0.000454	0.000932
	489.460000	9.831828	-8.586859	39.015867	0.000450	0.000925
	490.003000	10.429190	-8.544297	39.121258	0.000440	0.000918
	490.545000	5.157595	-8.463803	39.237382	0.000439	0.000916
	491.084000	16.761866	-8.405045	39.346140	0.000438	0.000917
	491.638000	4.756671	-8.348829	39.450756	0.000438	0.000915
	492.178000	9.311754	-8.349843	39.554346	0.000434	0.000909
	492.723000	10.066909	-8.365053	39.643356	0.000425	0.000905
	493.264000	1.608849	-8.359839	39.721390	0.000428	0.000907
	493.807000	6.854682	-8.364570	39.763301	0.000430	0.000910
	494.358000	7.046288	-8.363443	39.795258	0.000430	0.000909
